Timestamp,Accelerometer_X,Accelerometer_Y,Accelerometer_Z,Gyroscope_X,Gyroscope_Y,Gyroscope_Z,Magnetometer_X,Magnetometer_Y,Magnetometer_Z,Gravity_X,Gravity_Y,Gravity_Z,Orientation_Azimuth,Position_X,Position_Y,Linear_Acceleration_X,Linear_Acceleration_Y,Linear_Acceleration_Z,Step_Count
2026-01-07 14:13:24.135,0.9283517,3.2668881,9.28232,-0.07403369,-0.11278155,0.38255182,51.131252,-17.60625,-23.60625,-0.38609782,3.2938125,9.228874,258.80432,0.0,0.0,1.3144495,-0.026924372,0.053445816,0
2026-01-07 14:13:24.184,0.87567925,3.3913867,9.076419,0.0516638,0.0075897854,0.13754821,50.643753,-17.681252,-23.94375,0.3043441,3.334404,9.217347,259.29996,0.0,0.0,0.5713352,0.056982756,-0.14092827,0
2026-01-07 14:13:24.235,0.02813187,3.3291376,9.354146,-0.17310037,-0.25765324,-0.24393836,50.193752,-17.60625,-24.187502,0.42992905,3.3634124,9.201793,260.37137,0.0,0.0,-0.40179718,-0.034274817,0.15235329,0
2026-01-07 14:13:24.285,-0.57041854,3.3722332,9.880871,-0.25938424,-0.1756303,-0.18628262,50.49375,-17.41875,-24.375002,0.3241007,3.2396827,9.250395,261.06897,0.0,0.0,-0.8945192,0.13255048,0.630476,0
2026-01-07 14:13:24.335,0.8086416,3.1902738,9.406818,0.06338137,0.40279123,0.25472385,51.05625,-16.987501,-25.48125,0.25879306,3.168824,9.276959,259.98737,0.0,0.0,0.54984856,0.021449804,0.12985897,0
2026-01-07 14:13:24.385,0.26755205,2.9460652,9.67018,0.010119714,0.13967869,0.08428656,51.093754,-17.19375,-25.275002,0.20098189,3.192166,9.270387,259.60327,0.0,0.0,0.06657016,-0.2461009,0.39979362,0
2026-01-07 14:13:24.436,0.4285621,3.252523,9.211691,0.4533898,-0.14793424,0.28668085,50.850002,-17.325,-25.425001,0.25445443,3.2272074,9.256931,260.52264,0.0,0.0,0.17410767,0.025315523,-0.045240402,0
2026-01-07 14:13:24.487,0.79607207,3.6349967,8.282143,0.18694839,-0.07123746,-0.06058513,50.062504,-18.09375,-24.431252,0.386103,3.473373,9.162806,260.3894,0.0,0.0,0.40996906,0.16162372,-0.8806629,0
2026-01-07 14:13:24.536,-0.65900403,3.3650506,9.114726,-0.1390129,-0.009453943,-0.066976525,49.93125,-17.868752,-23.8875,0.3395396,3.4835732,9.160776,261.37677,0.0,0.0,-0.9985436,-0.118522644,-0.04605007,0
2026-01-07 14:13:24.586,-0.01316811,3.2986114,9.165603,-0.08042509,0.100265056,0.16950521,50.100002,-17.56875,-23.925001,0.27286214,3.4095201,9.190817,260.47034,0.0,0.0,-0.28603023,-0.11090875,-0.025214195,0
2026-01-07 14:13:24.636,0.52971715,3.4865563,8.8567505,-0.20186166,0.13222206,0.13648298,49.406254,-18.431252,-24.45,0.24921858,3.3751945,9.204147,259.67273,0.0,0.0,0.28049856,0.11136174,-0.34739685,0
2026-01-07 14:13:24.686,0.6961141,3.3129766,9.391256,-0.12409965,0.099199824,0.100265056,49.312504,-18.0375,-24.862501,0.25440398,3.280183,9.238294,258.9134,0.0,0.0,0.44171014,0.032793522,0.15296268,0
2026-01-07 14:13:24.736,0.29269117,3.2908301,9.458294,-0.09533835,0.033155378,0.004394086,49.55625,-17.38125,-25.48125,0.24407491,3.2301922,9.256169,260.35193,0.0,0.0,0.04861626,0.06063795,0.2021246,0
2026-01-07 14:13:24.786,0.47644615,3.0897174,9.2625675,-0.0015978495,0.024633514,0.08109087,49.575,-17.00625,-25.2,0.26455176,3.1890907,9.269849,259.9702,0.0,0.0,0.2118944,-0.09937334,-0.0072813034,0
2026-01-07 14:13:24.836,0.23044191,3.151368,9.324817,0.098534055,-0.119172946,1.3315413E-4,49.687504,-17.325,-25.181252,0.2861197,3.2012193,9.265027,260.13187,0.0,0.0,-0.055677786,-0.049851418,0.059789658,0
2026-01-07 14:13:24.886,-0.130484,3.2848446,9.381081,0.013315413,0.010785485,0.038481545,48.693752,-18.375,-25.35,0.30874088,3.2304206,9.254159,259.7476,0.0,0.0,-0.4392249,0.054424047,0.12692165,0
2026-01-07 14:13:24.937,0.79248077,3.5033157,9.269152,0.13581721,0.1631138,0.19080986,48.881252,-18.09375,-25.087502,0.27984995,3.2732382,9.240021,259.31662,0.0,0.0,0.5126308,0.2300775,0.029130936,0
2026-01-07 14:13:24.987,0.76554596,3.3363202,8.780735,0.070838,0.035285845,-0.050998032,48.80625,-17.925001,-24.618752,0.29568827,3.3474865,9.212888,259.30948,0.0,0.0,0.4698577,-0.011166334,-0.43215275,0
2026-01-07 14:13:25.037,-0.008978256,3.2148144,9.010578,-0.067642294,-0.0019973118,-0.07656363,49.0125,-17.8875,-24.675001,0.2781116,3.3511662,9.212097,260.1119,0.0,0.0,-0.28708985,-0.13635182,-0.20151901,0
2026-01-07 14:13:25.087,-0.048482586,3.1675289,9.327211,-0.0026630824,0.059786204,-0.004127778,49.125004,-17.8125,-24.768751,0.23026952,3.3174841,9.225597,259.79535,0.0,0.0,-0.27875212,-0.14995527,0.101614,0
2026-01-07 14:13:25.138,1.6166847,3.1142578,9.703101,-0.7920008,-0.14899947,-0.06804176,48.937504,-17.737501,-25.181252,0.21528898,3.1791422,9.27454,257.26923,0.0,0.0,1.4013957,-0.064884424,0.4285612,0
2026-01-07 14:13:25.188,-0.24241292,2.7042508,11.431715,0.10279499,0.047003407,0.029959679,48.768753,-17.56875,-25.968752,0.22965075,2.9380112,9.353381,257.27774,0.0,0.0,-0.47206366,-0.23376036,2.0783339,0
2026-01-07 14:13:25.238,0.095768064,3.1226375,9.427768,0.45445505,0.053394806,0.08641703,49.0875,-17.19375,-26.41875,0.1861624,3.0789382,9.308913,260.59723,0.0,0.0,-0.09039433,0.043699265,0.11885452,0
2026-01-07 14:13:25.289,0.47405192,2.2762873,9.062652,0.3190373,0.008655018,-0.066976525,49.18125,-16.96875,-25.743752,0.21350092,3.2366588,9.254665,257.88724,0.0,0.0,0.260551,-0.9603715,-0.19201374,0
2026-01-07 14:13:25.339,0.45130703,3.2914288,9.925761,0.7260895,0.5444672,-0.6604445,48.956253,-18.4125,-24.45,0.04114699,3.408448,9.195171,258.03418,0.0,0.0,0.41016003,-0.11701918,0.73058987,0
2026-01-07 14:13:25.388,-0.38726214,3.2615013,8.848969,0.95724505,-0.43461508,-0.67961866,50.006252,-18.018751,-22.5,-0.13901,3.778071,9.048604,260.2832,0.0,0.0,-0.24825214,-0.5165696,-0.19963455,0
2026-01-07 14:13:25.439,-0.80445176,5.295376,7.8128786,0.6302185,0.0022636203,-0.30146095,52.18125,-17.081251,-20.19375,-0.113505326,4.1904044,8.865552,270.06232,0.0,0.0,-0.69094646,1.1049714,-1.0526733,0
2026-01-07 14:13:25.489,-0.83018947,4.935048,7.690176,-0.083620794,0.46137905,0.1631138,53.100002,-17.5125,-18.91875,-0.26759702,4.377304,8.77143,268.21622,0.0,0.0,-0.56259245,0.557744,-1.081254,0
2026-01-07 14:13:25.539,-0.14724341,4.2054152,9.231443,-0.09959929,-0.05419373,0.13648298,52.687504,-17.8125,-18.9375,-0.33035663,4.3038783,8.80556,261.3024,0.0,0.0,0.18311322,-0.09846306,0.4258833,0
2026-01-07 14:13:25.590,-0.019153614,4.1078515,8.941745,0.091077425,-0.004127778,0.07682993,51.956253,-18.056252,-18.862501,-0.28057182,4.3046656,8.806902,260.71567,0.0,0.0,0.2614182,-0.19681406,0.13484287,0
2026-01-07 14:13:25.640,-0.2681506,4.460996,8.665813,0.007989247,0.25898477,0.06830807,51.99375,-17.625,-18.73125,-0.30113438,4.334698,8.791479,262.9334,0.0,0.0,0.03298378,0.12629795,-0.12566566,0
2026-01-07 14:13:25.690,0.34596214,3.6224272,8.955511,-0.08575126,0.23768012,-0.035019536,51.787502,-17.737501,-18.6,-0.4060579,4.313933,8.79747,258.9677,0.0,0.0,0.75202,-0.6915057,0.158041,0
2026-01-07 14:13:25.740,-0.27473465,4.268263,8.938153,0.24234052,0.323964,-0.3451355,51.881252,-17.38125,-17.962502,-0.5540848,4.318498,8.7871475,261.93954,0.0,0.0,0.27935013,-0.05023527,0.15100574,0
2026-01-07 14:13:25.790,-1.30484,5.0463786,8.244433,0.24234052,0.1631138,-0.2162423,52.781254,-17.550001,-17.4375,-0.7428074,4.44038,8.712155,267.86816,0.0,0.0,-0.5620326,0.6059985,-0.46772194,0
2026-01-07 14:13:25.840,-1.1552023,4.5819035,7.9170265,-0.027163442,0.23341918,0.12689589,53.006252,-17.7,-17.15625,-0.84492475,4.5112877,8.666301,266.4278,0.0,0.0,-0.31027752,0.07061577,-0.74927425,0
2026-01-07 14:13:25.890,-0.82779527,4.4538136,8.610746,-0.19014409,0.28455037,0.049133874,52.706253,-17.60625,-17.025002,-0.9348788,4.4687333,8.679101,263.7281,0.0,0.0,0.10708356,-0.014919758,-0.06835461,0
2026-01-07 14:13:25.940,-1.1707647,4.4448357,8.929773,-0.012250179,0.01611165,0.01611165,52.706253,-17.25,-17.7,-1.0146749,4.4093323,8.700495,264.66022,0.0,0.0,-0.15608978,0.035503387,0.22927856,0
2026-01-07 14:13:25.990,-0.961272,4.3035774,8.589199,-0.091077425,-0.005193011,0.022503048,52.65,-17.38125,-17.925001,-1.0067091,4.3972797,8.707518,264.31677,0.0,0.0,0.045437098,-0.09370232,-0.11831856,0
2026-01-07 14:13:26.039,-1.0462662,4.369418,8.686762,-0.07616416,-0.007323477,0.024633514,52.968754,-17.60625,-17.79375,-1.0023011,4.356911,8.728292,264.30893,0.0,0.0,-0.0439651,0.012506962,-0.04153061,0
2026-01-07 14:13:26.089,-1.0187328,4.1958385,8.71669,-0.0484681,-0.049932797,0.049133874,53.025,-17.85,-17.94375,-0.98388714,4.3264556,8.745522,263.5019,0.0,0.0,-0.03484565,-0.13061714,-0.028831482,0
2026-01-07 14:13:26.139,-0.919972,4.289212,8.729858,-0.119838715,0.027829213,0.022503048,52.7625,-17.8875,-18.13125,-0.96999997,4.294195,8.762955,263.53806,0.0,0.0,0.050027966,-0.0049829483,-0.033096313,0
2026-01-07 14:13:26.188,-0.98222125,4.301183,8.55987,-0.10705592,-0.007323477,0.0118507175,52.406254,-17.587502,-18.300001,-0.9681155,4.2553887,8.782073,264.3056,0.0,0.0,-0.014105737,0.043400288,-0.20364857,0
2026-01-07 14:13:26.238,-1.074398,4.231153,8.534731,-0.30199355,0.085351795,0.059786204,52.593754,-17.60625,-18.54375,-0.98659134,4.191529,8.810681,264.52612,0.0,0.0,-0.0878067,0.039624214,-0.27595043,0
2026-01-07 14:13:26.288,-1.2354081,4.39755,9.147646,-0.32116777,-0.021171506,-0.012649642,52.3875,-17.625,-19.237501,-0.9929841,4.0377574,8.881491,264.56265,0.0,0.0,-0.24242395,0.3597927,0.26615524,0
2026-01-07 14:13:26.338,-1.0875661,3.855862,8.713099,-0.48521364,0.0118507175,0.10985216,52.537502,-17.38125,-20.493752,-0.9975326,3.887059,8.947966,264.104,0.0,0.0,-0.09003353,-0.031197071,-0.2348671,0
2026-01-07 14:13:26.388,-1.2180501,3.8780081,8.881291,-0.5224968,-0.05738943,0.23554966,52.237503,-17.5125,-21.618752,-0.9768622,3.6775355,9.038354,264.44122,0.0,0.0,-0.24118793,0.2004726,-0.15706253,0
2026-01-07 14:13:26.438,-0.83856916,3.232771,9.200917,-0.58641076,-0.22463101,0.3111812,51.750004,-17.23125,-22.5,-0.8794072,3.430536,9.144859,261.59543,0.0,0.0,0.040838063,-0.19776511,0.05605793,0
2026-01-07 14:13:26.489,-0.7457938,3.2842462,9.185355,-0.40745163,-0.1436733,0.32289875,50.625004,-17.6625,-23.6625,-0.7213666,3.2019415,9.241081,261.39633,0.0,0.0,-0.024427235,0.082304716,-0.05572605,0
2026-01-07 14:13:26.540,-0.3597288,2.8682537,9.757569,-0.36058137,-0.30984965,0.23768012,49.912502,-18.075,-25.275002,-0.59949857,3.0211086,9.310418,258.86945,0.0,0.0,0.23976976,-0.15285492,0.44715118,0
2026-01-07 14:13:26.590,-0.15143326,2.6384103,9.248202,-0.28281936,-0.51024663,0.085351795,49.218754,-17.75625,-26.025002,-0.3612639,2.8593059,9.373593,258.73642,0.0,0.0,0.20983064,-0.22089553,-0.125391,0
2026-01-07 14:13:26.640,-0.02932897,2.5809495,9.612122,-0.04314194,-0.082955025,0.054460037,48.7125,-17.2875,-26.587502,-0.17709379,2.7507386,9.411295,258.6486,0.0,0.0,0.14776482,-0.16978908,0.20082664,0
2026-01-07 14:13:26.690,-0.6392518,2.700061,9.607931,0.12623012,-0.005193011,0.13648298,48.881252,-17.493752,-27.093752,-0.16251494,2.764342,9.407571,259.5439,0.0,0.0,-0.4767369,-0.06428099,0.2003603,0
2026-01-07 14:13:26.741,0.29149407,3.0340521,9.245809,0.09640359,-0.059519894,0.0885475,48.300003,-17.475,-26.775002,-0.10682512,2.8186972,9.392227,259.9124,0.0,0.0,0.39831918,0.21535492,-0.14641857,0
2026-01-07 14:13:26.792,-0.05746084,2.842516,9.211691,0.1517957,0.22063638,-0.037150003,48.037502,-17.362501,-26.7,-0.12570788,2.8934076,9.3692465,259.78067,0.0,0.0,0.068247035,-0.050891638,-0.15755558,0
2026-01-07 14:13:26.842,-0.19812019,2.9526494,9.488221,0.112382084,0.010785485,0.008655018,48.206253,-17.587502,-25.95,-0.2007019,2.953332,9.34922,259.55243,0.0,0.0,0.0025817156,-6.825924E-4,0.1390009,0
2026-01-07 14:13:26.892,-0.2621651,2.991555,9.277532,0.12409965,0.11837402,-0.035019536,48.093754,-17.94375,-25.7625,-0.21748222,3.0083134,9.331299,259.5161,0.0,0.0,-0.044682875,-0.016758442,-0.053767204,0
2026-01-07 14:13:26.941,-0.11133038,3.2866404,8.808268,0.0047935485,0.21104929,-0.11278155,48.225002,-17.831251,-25.5375,-0.30187932,3.0569618,9.313122,261.02258,0.0,0.0,0.19054893,0.22967863,-0.5048542,0
2026-01-07 14:13:26.993,-0.46627077,2.947861,9.298481,-0.06551183,-0.052063264,-0.07123746,48.487503,-18.112501,-25.143751,-0.35899398,3.0416908,9.316095,259.2509,0.0,0.0,-0.1072768,-0.09382987,-0.017614365,0
2026-01-07 14:13:27.043,-0.7673417,3.0490158,9.497798,-0.011184947,-0.095737815,0.0118507175,49.275,-18.206251,-24.993752,-0.36074692,3.0262253,9.321063,259.7252,0.0,0.0,-0.40659475,0.022790432,0.17673492,0
2026-01-07 14:13:27.094,-0.4890157,2.9658175,9.266758,-0.0548595,-0.10319445,0.12902635,48.73125,-18.225,-25.031252,-0.3251673,3.0155845,9.325819,259.27368,0.0,0.0,-0.1638484,-0.049767017,-0.05906105,0
2026-01-07 14:13:27.144,-0.24001873,3.0376434,8.870518,-0.17310037,0.03741631,0.12796111,48.300003,-17.34375,-25.800001,-0.27865785,2.976055,9.340013,260.8867,0.0,0.0,0.03863913,0.061588526,-0.46949482,0
2026-01-07 14:13:27.194,0.1388637,2.5198972,9.719262,-0.10705592,-0.040345702,0.053394806,48.16875,-17.34375,-26.04375,-0.24703328,2.8841746,9.369679,257.87592,0.0,0.0,0.38589698,-0.36427736,0.34958267,0
2026-01-07 14:13:27.245,-0.5835867,3.0909145,8.977059,-0.0484681,0.10985216,0.106656455,47.90625,-17.60625,-26.531252,-0.24735184,2.8629518,9.376178,261.31683,0.0,0.0,-0.33623487,0.22796273,-0.39911842,0
2026-01-07 14:13:27.296,-0.110133275,2.552219,8.908825,-0.24234052,-0.038215235,0.17376614,47.475002,-17.456251,-26.925001,-0.2657609,2.8089423,9.391997,258.94995,0.0,0.0,0.15562762,-0.2567234,-0.48317242,0
2026-01-07 14:13:27.346,-0.37828386,2.6192567,8.875306,-0.4607133,-0.052063264,0.099199824,47.025,-17.1,-27.16875,-0.24620856,2.6079571,9.450309,259.9047,0.0,0.0,-0.1320753,0.01129961,-0.5750027,0
2026-01-07 14:13:27.398,-0.83856916,2.3870192,9.751583,0.6174357,-0.027562905,0.0075897854,46.893753,-17.00625,-28.556252,-0.11176107,2.5759552,9.461626,258.72253,0.0,0.0,-0.7268081,-0.188936,0.28995705,0
2026-01-07 14:13:27.448,0.6075287,3.6709096,8.557475,0.25618854,-0.11384678,-0.027562905,47.0625,-17.53125,-27.69375,-0.05856132,2.8645816,9.378759,262.3583,0.0,0.0,0.66609,0.80632806,-0.8212843,0
2026-01-07 14:13:27.498,-0.20590134,3.1621418,9.427169,-0.32436347,0.10559122,0.015046417,47.100002,-17.25,-26.7,-0.036001876,2.8297262,9.389449,260.7899,0.0,0.0,-0.16989946,0.33241558,0.037719727,0
2026-01-07 14:13:27.550,-0.01616086,2.5600002,9.448717,-0.33927673,0.028894445,0.121569715,47.193752,-17.025002,-27.16875,-0.08963204,2.6570177,9.439418,258.83368,0.0,0.0,0.07347118,-0.09701753,0.009299278,0
2026-01-07 14:13:27.601,-0.06464344,2.2062569,9.221867,-0.36058137,-0.056324195,0.0885475,47.025,-17.34375,-28.237501,-0.04338482,2.492268,9.484571,257.68658,0.0,0.0,-0.021258622,-0.28601122,-0.26270485,0
2026-01-07 14:13:27.651,-0.040102877,2.4708161,9.546879,-0.026098209,-0.10319445,0.01291595,46.237503,-17.56875,-29.343752,-0.0051252805,2.3717473,9.515522,258.23102,0.0,0.0,-0.034977596,0.09906888,0.03135681,0
2026-01-07 14:13:27.701,-0.29987377,2.3612814,9.318831,0.011184947,0.0075897854,0.12689589,46.162502,-17.475,-29.531252,0.02081687,2.3871386,9.511652,258.33505,0.0,0.0,-0.32069063,-0.02585721,-0.19282055,0
2026-01-07 14:13:27.751,0.42916065,2.705448,9.564836,-0.098534055,-0.080824554,0.033155378,46.5,-17.118752,-29.75625,0.032305595,2.3749003,9.514683,259.38364,0.0,0.0,0.39685506,0.33054757,0.05015278,0
2026-01-07 14:13:27.800,0.05267244,2.1428106,9.626487,-0.0484681,-0.066976525,0.033155378,46.425003,-17.025002,-29.812502,0.10404463,2.3386354,9.523147,257.65497,0.0,0.0,-0.051372193,-0.19582486,0.10334015,0
2026-01-07 14:13:27.850,0.09816227,2.3175871,9.41041,0.030359142,0.045938175,0.01611165,45.91875,-17.0625,-29.41875,0.10628214,2.3194592,9.527812,258.2104,0.0,0.0,-0.008119866,-0.0018720627,-0.11740208,0
2026-01-07 14:13:27.899,-0.022146367,2.1775265,9.365519,0.067642294,-0.036084767,-0.02223674,45.46875,-17.681252,-30.000002,0.11049308,2.3455658,9.521371,257.0926,0.0,0.0,-0.13263944,-0.16803932,-0.15585232,0
2026-01-07 14:13:27.950,0.048482586,2.4127567,9.573814,-0.07829463,-0.081889786,0.010785485,46.29375,-17.1,-29.681252,0.10992311,2.3580492,9.518292,258.57507,0.0,0.0,-0.061440524,0.054707527,0.055521965,0
2026-01-07 14:13:28.000,0.19931729,2.5677812,9.945514,0.03675054,-0.07230269,-0.026497671,46.0125,-17.025002,-29.718752,0.17806906,2.322845,9.525916,258.7268,0.0,0.0,0.021248236,0.24493623,0.41959763,0
2026-01-07 14:13:28.050,0.320823,2.291251,9.572617,0.26257995,0.15991811,-0.046737097,45.84375,-17.306252,-29.643751,0.1669295,2.3829496,9.511261,257.59576,0.0,0.0,0.15389352,-0.09169865,0.06135559,0
2026-01-07 14:13:28.099,-0.01316811,2.4426842,9.236232,0.18801363,0.052329574,-0.052063264,46.0125,-17.493752,-29.212502,0.09490023,2.512383,9.478888,258.41183,0.0,0.0,-0.10806834,-0.06969881,-0.24265575,0
2026-01-07 14:13:28.149,-0.18974048,2.558803,9.114127,0.0548595,0.057655737,0.01611165,46.03125,-17.23125,-29.118752,0.049317285,2.5733812,9.462856,259.44336,0.0,0.0,-0.23905776,-0.014578104,-0.34872913,0
2026-01-07 14:13:28.199,-0.06703765,2.5516205,9.351752,0.0047935485,-0.05738943,0.04167724,46.36875,-17.175001,-28.425001,0.040242903,2.5859864,9.459463,258.96814,0.0,0.0,-0.10728055,-0.034365892,-0.10771084,0
2026-01-07 14:13:28.248,0.1388637,2.6378117,9.354146,0.025032977,0.029959679,0.056590505,46.350002,-17.493752,-28.781252,0.058868058,2.593523,9.457302,258.8554,0.0,0.0,0.07999564,0.044288635,-0.10315609,0
2026-01-07 14:13:28.298,0.28550854,2.4570496,9.26197,0.028228676,0.0075897854,0.02356828,45.956253,-17.831251,-28.462502,0.060304094,2.6138592,9.451693,257.5826,0.0,0.0,0.22520445,-0.15680957,-0.18972301,0
2026-01-07 14:13:28.347,0.108936176,2.6426,9.333796,-0.06870753,0.017176883,-0.009453943,45.43125,-18.206251,-28.125002,0.06791317,2.606126,9.453775,257.67004,0.0,0.0,0.04102301,0.03647399,-0.11997986,0
2026-01-07 14:13:28.397,-0.022146367,2.5833437,9.619304,-0.046337638,-0.052063264,-0.01904104,45.9375,-18.0375,-28.575,0.06819682,2.5698252,9.463707,257.72412,0.0,0.0,-0.090343185,0.013518572,0.15559673,0
2026-01-07 14:13:28.447,0.018555064,2.468422,9.403227,0.06338137,0.07469947,-0.006258244,45.9,-17.85,-28.500002,0.06437863,2.5684993,9.464093,257.66226,0.0,0.0,-0.045823563,-0.10007739,-0.060866356,0
2026-01-07 14:13:28.497,0.12629414,2.493561,9.389461,0.15712187,0.20572312,0.0118507175,45.3375,-18.13125,-28.331251,0.0038133494,2.6068645,9.453816,257.1717,0.0,0.0,0.12248079,-0.11330342,-0.06435585,0
2026-01-07 14:13:28.547,0.5805939,1.6214731,9.6767645,0.4917382,0.37722564,-0.13941237,45.5625,-18.393751,-27.54375,-0.075645596,2.6844788,9.431767,253.39334,0.0,0.0,0.6562395,-1.0630057,0.24499702,0
2026-01-07 14:13:28.597,-1.2491747,4.3556514,10.441113,0.88054824,0.77668804,-0.2450036,46.256252,-18.45,-26.925001,-0.45798337,3.0154607,9.320281,263.7071,0.0,0.0,-0.79119134,1.3401906,1.1208324,0
2026-01-07 14:13:28.647,-0.81761986,3.342904,7.0012445,0.0015978495,0.015046417,0.0118507175,47.04375,-18.150002,-25.331251,-0.59387535,3.2991228,9.215937,265.71652,0.0,0.0,-0.22374451,0.04378128,-2.214692,0
2026-01-07 14:13:28.697,-0.51475334,2.1996727,9.498397,-0.4798875,0.006524552,0.0033288533,47.04375,-17.681252,-25.181252,-0.6272929,3.1449535,9.267478,256.45535,0.0,0.0,0.11253953,-0.9452808,0.23091888,0
2026-01-07 14:13:28.747,-0.2801216,2.6629508,9.592369,-0.091077425,0.44007438,-0.146869,46.987503,-17.868752,-25.706251,-0.687213,2.9885187,9.314874,257.8139,0.0,0.0,0.4070914,-0.32556796,0.27749538,0
2026-01-07 14:13:28.797,-1.5496471,3.8175547,9.363723,0.05912043,0.26431096,-0.07869409,47.456253,-18.112501,-26.550001,-0.9287065,3.00157,9.289697,264.437,0.0,0.0,-0.62094057,0.8159847,0.07402611,0
2026-01-07 14:13:28.847,-0.45968673,2.4720132,9.229049,-0.067642294,-0.0115844095,0.16098334,48.131252,-17.587502,-25.81875,-0.9747721,3.006622,9.283341,258.27893,0.0,0.0,0.51508534,-0.53460884,-0.05429268,0
2026-01-07 14:13:28.897,-1.4760253,2.5785553,8.422203,0.12836058,0.66057765,0.26005,48.0,-17.79375,-26.062502,-1.0259218,3.0076768,9.277486,260.4052,0.0,0.0,-0.45010352,-0.4291215,-0.8552828,0
2026-01-07 14:13:28.947,-2.0428526,4.1264067,10.518327,0.23168819,1.1548457,0.5210321,47.49375,-18.075,-25.800001,-1.4123518,3.1023285,9.195172,263.82605,0.0,0.0,-0.6305008,1.0240781,1.3231544,0
2026-01-07 14:13:28.997,-1.4730326,3.300407,7.93199,0.34353766,0.98334324,0.39320415,46.21875,-17.925001,-25.29375,-1.8002636,3.321878,9.049562,264.43298,0.0,0.0,0.32723105,-0.021471024,-1.1175723,0
2026-01-07 14:13:29.047,-1.9309237,4.0922894,8.163031,0.2711018,-0.41530773,0.29946363,45.675003,-17.737501,-24.206251,-1.9558092,3.4956384,8.951297,268.52197,0.0,0.0,0.024885535,0.5966511,-0.7882662,0
2026-01-07 14:13:29.097,-2.110489,4.0360255,9.551667,0.05379427,0.42516112,0.08002563,44.625,-18.31875,-23.25,-1.891791,3.568761,8.936189,263.18738,0.0,0.0,-0.19595301,0.46187758,0.5945301,0
2026-01-07 14:13:29.147,-1.8357542,3.982156,9.553463,0.13794768,0.17057043,0.009720251,44.081253,-18.825,-22.743752,-2.0619223,3.6197557,8.8778515,261.52695,0.0,0.0,0.22616816,0.3624003,0.6756115,0
2026-01-07 14:13:29.199,-2.1350293,3.7152026,8.197148,0.14114338,-0.4772244,0.04806864,44.006252,-18.825,-22.3125,-1.9826741,3.7136896,8.857081,263.65222,-0.4936595,-0.07937438,-0.1523552,0.0015130043,-0.6599331,1
2026-01-07 14:13:29.249,-1.9057846,3.4763808,8.260594,0.045272402,-0.050998032,0.053394806,44.325,-18.73125,-22.21875,-1.8107599,3.7611377,8.873859,262.04715,-0.4936595,-0.07937438,-0.095024705,-0.2847569,-0.61326504,1
2026-01-07 14:13:29.300,-2.5366566,4.0665517,9.236232,0.10812115,0.08322133,0.10772169,44.325,-18.84375,-22.2,-1.8911662,3.7843738,8.847169,263.20596,-0.4936595,-0.07937438,-0.6454904,0.28217793,0.38906288,1
2026-01-07 14:13:29.350,-1.2437878,3.8923733,8.258799,0.042076703,-0.07975932,0.03741631,43.987503,-18.618752,-21.6375,-1.8080525,3.85243,8.835164,262.8242,-0.4936595,-0.07937438,0.5642648,0.03994322,-0.5763655,1
2026-01-07 14:13:29.400,-1.8596961,3.8151605,8.804078,-0.049533337,0.41344357,0.04061201,43.237503,-18.31875,-21.69375,-1.8980899,3.8560169,8.814692,262.332,-0.4936595,-0.07937438,0.038393736,-0.04085636,-0.0106134415,1
2026-01-07 14:13:29.452,-1.5693992,4.1461587,7.65546,-0.012250179,0.2078536,-0.10106398,43.18125,-17.775002,-21.73125,-2.0739424,3.8911655,8.759451,267.49457,-0.4936595,-0.07937438,0.5045432,0.2549932,-1.103991,1
2026-01-07 14:13:29.502,-2.5187001,3.9384618,9.561843,0.035685305,-0.28961024,-0.20239428,43.85625,-18.225,-21.712502,-2.0706832,3.8330219,8.785819,262.23584,-0.4936595,-0.07937438,-0.44801688,0.1054399,0.77602386,1
2026-01-07 14:13:29.552,-2.7287915,3.7020345,8.410232,-0.10279499,-0.6135742,-0.039280467,44.325,-18.73125,-21.75,-1.9906713,3.8190842,8.810347,263.5545,-0.4936595,-0.07937438,-0.7381202,-0.117049694,-0.400115,1
2026-01-07 14:13:29.603,-1.8237832,3.669114,9.196728,-0.038881004,-0.4995943,0.09067796,44.60625,-18.50625,-21.825,-1.7872803,3.7629235,8.877862,260.9826,-0.4936595,-0.07937438,-0.036502838,-0.093809366,0.31886578,1
2026-01-07 14:13:29.653,-1.3634979,3.8133647,8.93935,-5.326165E-4,-0.55072546,-0.014780108,44.4,-18.525002,-22.837502,-1.4416068,3.7708378,8.937166,261.98505,-0.4936595,-0.07937438,0.07810891,0.04252696,0.0021839142,1
2026-01-07 14:13:29.703,-1.0726024,3.6792896,9.186552,-0.0069240145,0.08748226,0.025698747,44.1375,-18.393751,-22.5375,-1.309707,3.752145,8.965291,260.43735,-0.4936595,-0.07937438,0.23710465,-0.07285547,0.22126102,1
2026-01-07 14:13:29.753,-1.5340848,3.9013517,9.762358,0.13475198,-0.19267403,-0.01904104,43.6875,-18.375,-21.956251,-1.3102491,3.7564976,8.96339,260.52188,-0.4936595,-0.07937438,-0.2238357,0.14485407,0.79896736,1
2026-01-07 14:13:29.804,-1.1444284,3.716998,8.495226,0.11770825,-0.10852061,0.10133029,43.6875,-18.300001,-21.6375,-1.1946757,3.8435264,8.942619,261.63995,-0.4936595,-0.07937438,0.05024731,-0.12652826,-0.44739342,1
2026-01-07 14:13:29.854,-0.90261406,3.90614,8.91062,0.052729033,-0.17030413,-0.004127778,43.96875,-18.13125,-21.4125,-1.1446859,3.8808694,8.933025,261.34344,-0.4936595,-0.07937438,0.2420718,0.0252707,-0.022405624,1
2026-01-07 14:13:29.904,-0.7930793,3.8708255,8.930372,0.12303442,-0.38441595,-0.058454663,43.725002,-18.018751,-21.225,-0.9652692,3.9179285,8.938036,260.96164,-0.4936595,-0.07937438,0.17218989,-0.04710293,-0.007663727,1
2026-01-07 14:13:29.954,-0.60214174,3.9953241,8.971074,0.08681649,-0.06591129,-0.09254212,43.6875,-18.375,-20.475,-0.86387604,3.9658895,8.927252,260.1792,-0.4936595,-0.07937438,0.2617343,0.029434681,0.04382229,1
2026-01-07 14:13:30.003,-1.0851719,4.570531,8.713697,0.07935986,-0.54646456,-0.3099828,43.66875,-18.50625,-19.987501,-0.8010106,4.0217767,8.908091,263.34692,-0.4936595,-0.07937438,-0.28416133,0.5487542,-0.19439316,1
2026-01-07 14:13:30.054,0.07182605,3.0107086,7.893683,-0.21784015,0.19294032,-0.7808158,43.55625,-19.10625,-20.1375,-0.6981493,3.987144,8.9322815,256.10812,-0.4936595,-0.07937438,0.76997536,-0.9764354,-1.0385985,1
2026-01-07 14:13:30.103,-1.5586253,3.9881415,11.69388,-0.26684088,-1.4753478,-0.87668675,45.693752,-18.581251,-20.56875,-0.7932179,3.7748253,9.016201,257.884,-0.4936595,-0.07937438,-0.76540744,0.2133162,2.677679,1
2026-01-07 14:13:30.153,-0.4818331,3.3022027,10.070012,0.87309164,-1.2164961,-0.5017248,48.45,-17.925001,-21.825,-0.29504862,3.8732579,9.00451,258.62317,-0.98213315,-0.18611453,-0.18678448,-0.5710552,1.0655022,2
2026-01-07 14:13:30.203,0.13347675,4.173094,7.3406224,0.45765075,0.015046417,-0.18202169,49.218754,-18.243752,-21.056252,-0.09971765,4.2350445,8.8444805,263.21606,-0.98213315,-0.18611453,0.2331944,-0.061950684,-1.5038581,2
2026-01-07 14:13:30.253,-0.16938977,4.759673,8.361151,0.08788172,-0.30239302,-0.09147689,49.575,-18.5625,-18.993752,-0.07250385,4.3354335,8.795974,262.76575,-0.98213315,-0.18611453,-0.09688592,0.42423964,-0.43482304,2
2026-01-07 14:13:30.304,-0.6931214,4.71957,7.2113357,-0.38295126,-0.8191642,0.48055324,50.062504,-17.775002,-18.581251,0.20504822,4.288055,8.817081,267.39917,-0.98213315,-0.18611453,-0.8981696,0.43151522,-1.6057458,2
2026-01-07 14:13:30.354,1.115698,4.0821137,7.3777328,-0.7419348,0.31331167,0.23554966,49.706253,-17.306252,-19.7625,0.49180123,4.0596924,8.913327,259.8035,-0.98213315,-0.18611453,0.6238967,0.02242136,-1.5355945,2
2026-01-07 14:13:30.404,-0.39564183,3.389591,10.179547,-0.7003907,0.19294032,0.2664414,48.843754,-17.79375,-21.54375,0.35156843,3.692868,9.077969,258.81152,-0.98213315,-0.18611453,-0.74721026,-0.30327702,1.1015787,2
2026-01-07 14:13:30.455,1.3227965,3.0986955,9.8994255,-0.113447316,-0.037150003,0.15885288,48.05625,-18.09375,-23.34375,0.39052293,3.4891555,9.156618,256.3582,-0.98213315,-0.18611453,0.9322735,-0.39046,0.7428074,2
2026-01-07 14:13:30.506,0.516549,3.5745432,9.186552,0.32116777,0.24939768,-0.040345702,47.7,-17.8875,-23.643751,0.35516128,3.5447783,9.136673,259.47516,-1.4711665,-0.29026052,0.16138771,0.02976489,0.049879074,3
2026-01-07 14:13:30.556,0.5201403,3.5835214,9.027337,0.13794768,-0.1308905,-0.023301972,47.71875,-17.868752,-22.800001,0.3377895,3.6523519,9.094867,259.31424,-1.4711665,-0.29026052,0.18235078,-0.06883049,-0.06752968,3
2026-01-07 14:13:30.606,0.05207389,3.7660792,9.269152,0.18268746,0.114113085,-0.07123746,48.281254,-17.493752,-22.1625,0.28815398,3.7307785,9.0646925,260.65338,-1.4711665,-0.29026052,-0.23608008,0.03530073,0.20445919,3
2026-01-07 14:13:30.657,0.05267244,3.6804867,8.44016,0.084686026,0.085351795,-0.026497671,48.187504,-17.625,-21.675001,0.25772917,3.8037274,9.035243,261.04742,-1.4711665,-0.29026052,-0.20505673,-0.12324071,-0.59508324,3
2026-01-07 14:13:30.707,0.25857377,3.8253357,8.814852,-0.07403369,0.14287437,0.032090146,47.98125,-18.2625,-21.225,0.20902808,3.8064752,9.035345,259.65195,-1.4711665,-0.29026052,0.04954569,0.018860579,-0.22049332,3
2026-01-07 14:13:30.757,0.19991584,3.8881836,9.2907,-0.06657706,0.053394806,-0.012649642,48.131252,-17.85,-21.75,0.15860978,3.7794383,9.04771,260.1077,-1.4711665,-0.29026052,0.041306064,0.10874534,0.24298954,3
2026-01-07 14:13:30.807,0.34955344,3.6888664,8.861539,-0.0026630824,0.12689589,-0.059519894,47.850002,-17.775002,-21.712502,0.16443822,3.7667828,9.052882,259.74643,-1.4711665,-0.29026052,0.18511522,-0.077916384,-0.19134331,3
2026-01-07 14:13:30.857,-0.04249708,3.7283707,8.860941,-0.119838715,0.30052885,-0.030758604,47.9625,-17.8875,-21.75,0.041167542,3.7499292,9.061276,260.553,-1.4711665,-0.29026052,-0.083664626,-0.021558523,-0.2003355,3
2026-01-07 14:13:30.908,-0.50996494,4.349067,10.287286,0.12303442,-0.1596518,-0.07230269,48.225002,-18.018751,-22.237501,-0.1492926,3.7384572,9.06488,261.50302,-1.4711665,-0.29026052,-0.36067235,0.61061,1.2224054,3
2026-01-07 14:13:30.958,-0.1388637,3.4853592,8.540117,0.17629607,-0.052063264,-0.053128496,48.600002,-17.868752,-22.275002,-0.067743786,3.79806,9.041047,260.7777,-1.4711665,-0.29026052,-0.07111991,-0.31270075,-0.50092983,3
2026-01-07 14:13:31.007,0.023343466,3.9354692,8.857349,-0.019706812,-0.18308693,-0.08721595,48.787502,-17.79375,-22.03125,-0.018620512,3.8567345,9.016409,261.42245,-1.4711665,-0.29026052,0.04196398,0.07873464,-0.15905952,3
2026-01-07 14:13:31.057,0.16101007,3.8043866,9.81503,-0.0069240145,-0.18095645,-0.17456506,48.937504,-17.8125,-22.050001,0.02987523,3.8255563,9.029651,259.72946,-1.4711665,-0.29026052,0.13113484,-0.021169662,0.7853794,3
2026-01-07 14:13:31.114,-0.20530279,3.945046,10.18254,0.009054481,-0.612509,-0.1756303,49.0125,-17.6625,-22.21875,0.12159801,3.8066034,9.036889,260.54123,-1.4711665,-0.29026052,-0.3269008,0.13844252,1.1456509,3
2026-01-07 14:13:31.163,0.006584055,3.6337996,9.947908,0.23807958,0.01291595,-0.097868286,49.29375,-18.1875,-21.88125,0.28766146,3.8005838,9.035663,258.99725,-1.9631858,-0.37923807,-0.2810774,-0.16678429,0.91224575,4
2026-01-07 14:13:31.214,0.15502456,3.8833952,8.586804,0.6035877,-0.032889068,0.025698747,50.081253,-17.868752,-21.75,0.25682756,3.9889822,8.955024,261.3312,-1.9631858,-0.37923807,-0.101803005,-0.105587006,-0.36821938,4
2026-01-07 14:13:31.268,0.23822308,4.383185,8.130709,0.38508174,0.15565717,-0.014780108,50.006252,-17.56875,-20.5125,0.200684,4.2654076,8.82816,262.7508,-1.9631858,-0.37923807,0.03753908,0.11777735,-0.6974516,4
2026-01-07 14:13:31.319,0.52732295,4.3526587,7.727885,0.11451255,0.052329574,0.02676398,49.725002,-18.28125,-19.518751,0.19315962,4.3941417,8.764964,261.01312,-1.9631858,-0.37923807,0.3341633,-0.041482925,-1.0370793,4
2026-01-07 14:13:31.369,0.16579847,4.3885717,8.943541,0.13688244,-0.004127778,-0.025432438,50.175003,-17.41875,-18.9375,0.17301247,4.42947,8.747585,261.3247,-1.9631858,-0.37923807,-0.007213995,-0.040898323,0.19595528,4
2026-01-07 14:13:31.419,0.095169514,4.5675383,8.234857,0.34034196,0.13222206,0.013981183,50.11875,-18.2625,-17.75625,0.13543622,4.5469437,8.687769,261.36694,-1.9631858,-0.37923807,-0.040266708,0.020594597,-0.45291233,4
2026-01-07 14:13:31.469,0.013766659,4.703409,7.864354,0.11025162,-0.0030625449,0.04167724,49.66875,-18.206251,-17.681252,0.116125174,4.657176,8.629461,262.4419,-1.9631858,-0.37923807,-0.10235851,0.046233177,-0.76510715,4
2026-01-07 14:13:31.519,0.090381116,4.763264,8.358757,0.07509893,0.029959679,0.08002563,49.85625,-17.38125,-17.1,0.10934589,4.6929812,8.610131,262.14532,-1.9631858,-0.37923807,-0.018964775,0.070282936,-0.25137424,4
2026-01-07 14:13:31.569,0.16460137,4.6537294,8.3390045,0.23701435,-0.21717438,0.10985216,49.29375,-17.90625,-16.85625,0.17986651,4.750573,8.5773,260.954,-1.9631858,-0.37923807,-0.015265137,-0.09684372,-0.23829556,4
2026-01-07 14:13:31.619,0.46926352,4.8219223,8.04751,0.21997061,-0.16071703,0.09387366,48.956253,-17.98125,-16.6875,0.30480036,4.8656487,8.508992,260.49857,-1.9631858,-0.37923807,0.16446316,-0.043726444,-0.46148205,4
2026-01-07 14:13:31.669,0.3854665,4.982932,8.333617,-0.10279499,-0.016910573,0.031024912,48.80625,-18.337502,-15.843751,0.36507478,4.9200583,8.475266,259.935,-1.9631858,-0.37923807,0.020391703,0.06287384,-0.14164925,4
2026-01-07 14:13:31.720,0.6087258,4.827309,8.843582,-0.035685305,-0.09360735,0.027829213,48.99375,-17.98125,-15.69375,0.40220153,4.8678,8.503713,258.77655,-1.9631858,-0.37923807,0.20652425,-0.040491104,0.3398695,4
2026-01-07 14:13:31.770,0.54527944,4.859631,8.406042,0.03248961,0.01291595,0.0033288533,48.656254,-18.46875,-15.731251,0.4350783,4.8748326,8.498064,258.89874,-1.9631858,-0.37923807,0.11020115,-0.015201569,-0.09202194,4
2026-01-07 14:13:31.819,0.46567222,4.9200845,8.258799,-0.05059857,0.047003407,0.02356828,48.825,-18.75,-15.39375,0.43214762,4.881662,8.494292,258.9787,-1.9631858,-0.37923807,0.033524603,0.038422585,-0.23549366,4
2026-01-07 14:13:31.870,0.41718966,4.89315,8.558074,-0.056989968,-0.040345702,0.006524552,48.9,-18.1875,-16.050001,0.42889208,4.8543797,8.510078,259.69302,-1.9631858,-0.37923807,-0.011702418,0.0387702,0.047995567,4
2026-01-07 14:13:31.919,0.41718966,4.8536453,8.634089,-5.326165E-4,-0.12556434,-0.00838871,48.487503,-18.35625,-16.10625,0.45524243,4.8434596,8.51493,259.32574,-1.9631858,-0.37923807,-0.038052768,0.010185719,0.1191597,4
2026-01-07 14:13:31.969,0.5189432,4.823119,8.474875,-0.018641578,1.3315413E-4,0.004394086,48.43125,-18.825,-16.48125,0.50258434,4.8398943,8.514296,258.8736,-1.9631858,-0.37923807,0.016358852,-0.016775131,-0.039420128,4
2026-01-07 14:13:32.019,0.58538234,4.808754,8.567052,-0.016511112,0.008655018,-9.320789E-4,48.787502,-18.618752,-15.918751,0.49182677,4.827626,8.521885,258.51495,-1.9631858,-0.37923807,0.09355557,-0.018872261,0.04516697,4
2026-01-07 14:13:32.019,0.58538234,4.808754,8.567052,-0.016511112,0.008655018,-9.320789E-4,48.787502,-18.618752,-15.918751,0.49182677,4.827626,8.521885,258.51495,-1.9631858,-0.37923807,0.09355557,-0.018872261,0.04516697,4
2026-01-07 14:13:32.070,0.41958386,4.84766,8.377312,0.029293908,0.0033288533,-0.01904104,48.9,-18.206251,-15.95625,0.48571262,4.8365526,8.517173,259.70868,-1.9631858,-0.37923807,-0.06612876,0.011107445,-0.1398611,4
2026-01-07 14:13:32.120,0.47345337,4.8081555,8.488044,-0.009054481,-0.041410934,-0.013714875,49.275,-17.53125,-15.95625,0.4955471,4.843937,8.512408,260.07117,-1.9631858,-0.37923807,-0.022093713,-0.035781384,-0.024364471,4
2026-01-07 14:13:32.170,0.39205053,4.748899,8.492233,0.023967743,-0.00838871,0.01611165,48.675003,-18.300001,-16.03125,0.48901957,4.8403783,8.514811,259.3739,-1.9631858,-0.37923807,-0.09696904,-0.0914793,-0.022577286,4
2026-01-07 14:13:32.221,0.6051345,4.919486,8.468291,-0.0047935485,-0.027562905,0.019307349,48.656254,-18.2625,-15.750001,0.5049489,4.850638,8.508039,258.9869,-1.9631858,-0.37923807,0.10018557,0.06884813,-0.03974819,4
2026-01-07 14:13:32.271,0.4985925,4.830302,8.584411,0.009054481,-0.005193011,-0.015845342,49.162502,-17.94375,-15.843751,0.51700675,4.846617,8.509604,259.46967,-1.9631858,-0.37923807,-0.018414259,-0.01631546,0.07480621,4
2026-01-07 14:13:32.322,0.46267948,4.8787847,8.477868,0.031424373,-0.042476166,-0.017975807,48.843754,-17.8875,-15.431251,0.5195985,4.857647,8.503157,259.54062,-1.9631858,-0.37923807,-0.05691901,0.021137714,-0.025288582,4
2026-01-07 14:13:32.372,0.50278234,4.8225207,8.389881,0.011184947,0.0022636203,-9.320789E-4,48.693752,-18.581251,-15.187501,0.5246378,4.8708873,8.49527,258.55823,-1.9631858,-0.37923807,-0.021855474,-0.048366547,-0.10538864,4
2026-01-07 14:13:32.422,0.4165911,4.8267107,8.516774,-0.028228676,-0.024367206,-0.014780108,48.843754,-18.5625,-14.925,0.52166015,4.8667965,8.497797,258.5975,-1.9631858,-0.37923807,-0.10506904,-0.040085793,0.018977165,4
2026-01-07 14:13:32.471,0.53091425,4.807557,8.534731,0.015445879,0.019307349,0.024633514,48.525,-18.50625,-15.13125,0.52069485,4.855778,8.504156,258.3191,-1.9631858,-0.37923807,0.010219395,-0.04822111,0.030574799,4
2026-01-07 14:13:32.521,0.51235914,4.853047,8.447342,0.031424373,-0.00838871,1.3315413E-4,49.162502,-17.8125,-15.0375,0.52248377,4.865145,8.498692,259.27615,-1.9631858,-0.37923807,-0.010124624,-0.012098312,-0.05134964,4
2026-01-07 14:13:32.572,0.48841715,4.8362875,8.39467,-0.0069240145,-0.013714875,0.0054593193,48.80625,-18.056252,-15.731251,0.526144,4.876648,8.491871,259.45993,-1.9631858,-0.37923807,-0.03772688,-0.04036045,-0.09720135,4
2026-01-07 14:13:32.622,0.4961983,4.8141413,8.5622635,-0.030359142,-0.005193011,0.0075897854,48.525,-18.0375,-16.087502,0.5336492,4.8630466,8.499199,259.39798,-1.9631858,-0.37923807,-0.03745091,-0.048905373,0.063064575,4
2026-01-07 14:13:32.672,0.5470751,4.819528,8.590994,0.038881004,0.033155378,0.033155378,48.693752,-18.2625,-15.69375,0.52503157,4.8572283,8.503062,258.8266,-1.9631858,-0.37923807,0.022043526,-0.037700176,0.08793163,4
2026-01-07 14:13:32.722,0.64463884,4.8919525,8.325836,0.023967743,0.0054593193,-0.004127778,48.412502,-17.643751,-15.712501,0.5452235,4.8796134,8.488962,259.47345,-1.9631858,-0.37923807,0.09941536,0.012339115,-0.16312599,4
2026-01-07 14:13:32.772,0.56084174,4.7830167,8.452729,0.0037283157,-0.015845342,0.0011983871,48.6375,-17.53125,-15.525001,0.5465676,4.8794956,8.488945,259.44662,-1.9631858,-0.37923807,0.01427412,-0.09647894,-0.036215782,4
2026-01-07 14:13:32.823,0.5398925,4.8853683,8.251018,0.018641578,0.006524552,0.029959679,48.018753,-18.1875,-15.69375,0.55065787,4.8911824,8.481952,259.25482,-1.9631858,-0.37923807,-0.010765374,-0.0058140755,-0.23093414,4
2026-01-07 14:13:32.873,0.7044938,4.950012,8.395866,-0.027163442,-0.00838871,0.015046417,48.6375,-17.98125,-15.337501,0.5648497,4.8928127,8.480078,258.8323,-1.9631858,-0.37923807,0.13964415,0.05719948,-0.08421135,4
2026-01-07 14:13:32.923,0.70509243,4.8973393,8.424597,-0.0058587817,-0.004127778,-0.016910573,49.143753,-17.53125,-15.750001,0.571709,4.8928623,8.4795885,259.45926,-1.9631858,-0.37923807,0.13338345,0.004477024,-0.054991722,4
2026-01-07 14:13:32.972,0.53929394,4.8919525,8.285135,-0.029293908,0.036351077,0.015046417,48.750004,-18.1875,-15.7875,0.57313406,4.8912263,8.480436,259.41797,-1.9631858,-0.37923807,-0.03384012,7.26223E-4,-0.19530106,4
2026-01-07 14:13:33.022,0.5979519,4.9494133,8.598177,-0.056989968,-0.028628137,-0.02223674,48.6375,-18.675001,-16.10625,0.5683603,4.8757763,8.48965,258.74976,-1.9631858,-0.37923807,0.02959156,0.07363701,0.10852718,4
2026-01-07 14:13:33.073,0.5069722,4.8099513,8.446145,0.021837277,0.028894445,0.017176883,48.862503,-18.35625,-15.675,0.56491464,4.8634777,8.496931,258.9901,-1.9631858,-0.37923807,-0.05794245,-0.0535264,-0.05078602,4
2026-01-07 14:13:33.123,0.6051345,4.8901567,8.285733,-0.03248961,0.013981183,0.022503048,48.45,-17.8125,-15.525001,0.5614336,4.8714066,8.492619,259.36456,-1.9631858,-0.37923807,0.043700874,0.01875019,-0.20688534,4
2026-01-07 14:13:33.173,0.65242,4.808754,8.219295,-0.07190323,0.036351077,0.029959679,48.318752,-17.90625,-16.25625,0.5612607,4.8575106,8.500587,259.42822,-1.9631858,-0.37923807,0.091159284,-0.0487566,-0.28129292,4
2026-01-07 14:13:33.223,0.6787562,4.7800236,8.462905,-0.1517957,-0.025432438,-0.007323477,47.643753,-18.675001,-16.368752,0.57599854,4.8085327,8.527404,258.2651,-1.9631858,-0.37923807,0.10275763,-0.02850914,-0.0644989,4
2026-01-07 14:13:33.274,0.5919664,4.7656584,8.577228,-0.06231613,0.052329574,-0.0030625449,48.35625,-17.75625,-16.2,0.56418437,4.7584887,8.556218,259.31915,-1.9631858,-0.37923807,0.027782023,0.0071697235,0.021009445,4
2026-01-07 14:13:33.324,0.4417302,4.8781857,8.532935,-0.05059857,-0.033954304,-0.005193011,48.693752,-17.6625,-15.843751,0.5579792,4.7411585,8.566239,259.9743,-1.9631858,-0.37923807,-0.116249025,0.13702726,-0.033304214,4
2026-01-07 14:13:33.374,0.7188591,4.696825,8.635885,-0.070838,-0.004127778,-0.036084767,48.750004,-19.0125,-16.725,0.5644662,4.722455,8.57614,257.91364,-1.9631858,-0.37923807,0.1543929,-0.025629997,0.059744835,4
2026-01-07 14:13:33.425,0.5554548,4.72376,8.702325,-0.0069240145,0.0033288533,-0.027562905,48.581253,-19.237501,-16.931252,0.56495243,4.695578,8.590854,258.21445,-1.9631858,-0.37923807,-0.0094976425,0.02818203,0.111471176,4
2026-01-07 14:13:33.475,0.45489833,4.630985,8.638878,-0.027163442,-0.035019536,-0.06804176,49.2,-18.337502,-16.331251,0.56052846,4.6890483,8.594708,259.02908,-1.9631858,-0.37923807,-0.10563013,-0.058063507,0.044169426,4
2026-01-07 14:13:33.525,0.36032736,4.597466,8.647258,0.025032977,0.060851436,0.02356828,48.843754,-18.225,-16.800001,0.5379019,4.6705546,8.606217,259.49985,-1.9631858,-0.37923807,-0.17757452,-0.073088646,0.04104042,4
2026-01-07 14:13:33.576,0.5351041,4.712986,8.378509,0.023967743,-0.026497671,0.0022636203,48.9,-18.525002,-16.425001,0.5240284,4.6916523,8.595591,259.17755,-1.9631858,-0.37923807,0.0110756755,0.021333694,-0.21708202,4
2026-01-07 14:13:33.626,0.52971715,4.646547,8.480861,-0.0516638,0.01291595,-0.005193011,48.562504,-18.300001,-16.29375,0.52930784,4.694099,8.59393,258.90198,-1.9631858,-0.37923807,4.093051E-4,-0.04755211,-0.113069534,4
2026-01-07 14:13:33.677,0.4997896,4.6220064,8.510789,0.0069240145,0.045938175,0.01291595,48.91875,-18.1875,-16.875,0.5150911,4.677454,8.603865,259.39716,-1.9631858,-0.37923807,-0.015301526,-0.05544758,-0.09307575,4
2026-01-07 14:13:33.727,0.7380127,4.661511,8.260594,-0.06657706,0.047003407,-0.017975807,48.562504,-18.618752,-16.743752,0.51190287,4.686752,8.598994,258.46417,-1.9631858,-0.37923807,0.2261098,-0.025240898,-0.3383999,4
2026-01-07 14:13:33.777,0.2741361,4.598663,8.437765,-0.112382084,0.14180915,-0.049932797,48.600002,-18.65625,-16.650002,0.4716436,4.6550665,8.618486,259.41562,-1.9631858,-0.37923807,-0.1975075,-0.056403637,-0.18072128,4
2026-01-07 14:13:33.827,-0.07182605,4.7459064,8.412626,-0.091077425,0.053394806,0.03422061,49.125004,-18.28125,-17.00625,0.37118056,4.621298,8.641541,261.45294,-1.9631858,-0.37923807,-0.4430066,0.12460852,-0.22891426,4
2026-01-07 14:13:33.878,0.712275,4.110844,9.161413,-0.2093183,-0.088281184,0.028894445,48.825,-18.206251,-17.7,0.3955627,4.54504,8.680814,257.6502,-1.9631858,-0.37923807,0.31671232,-0.434196,0.4805994,4
2026-01-07 14:13:33.929,1.2000936,3.846285,9.407417,-0.031424373,0.19080986,0.09600413,48.318752,-18.993752,-18.431252,0.44739076,4.4111896,8.747092,255.469,-1.9631858,-0.37923807,0.75270283,-0.56490445,0.66032505,4
2026-01-07 14:13:33.979,1.151611,4.4035354,8.533533,0.17523083,0.070438534,1.3315413E-4,48.6375,-18.243752,-18.75,0.44403204,4.42823,8.73865,258.0368,-1.9631858,-0.37923807,0.7075789,-0.024694443,-0.20511723,4
2026-01-07 14:13:34.029,0.31423897,4.932654,8.003218,-0.05912043,-0.014780108,-0.16817367,48.300003,-18.056252,-18.956251,0.45980784,4.504574,8.698723,262.5189,-1.9631858,-0.37923807,-0.14556888,0.42808008,-0.69550514,4
2026-01-07 14:13:34.080,-0.82001406,4.984728,8.613141,-0.10386022,-0.095737815,-0.16604319,48.506252,-18.150002,-18.0,0.34169045,4.5179305,8.697237,264.49866,-1.9631858,-0.37923807,-1.1617045,0.46679735,-0.084095955,4
2026-01-07 14:13:34.130,-0.5638345,3.804985,9.074623,-0.09746882,-0.28747976,-0.20772044,49.18125,-18.150002,-18.225,0.34533706,4.460019,8.726933,259.89883,-1.9631858,-0.37923807,-0.9091716,-0.65503407,0.34769058,4
2026-01-07 14:13:34.180,-0.5009867,3.8025908,8.933964,-0.030359142,0.20998406,0.29307222,49.3875,-18.73125,-18.768751,0.3553254,4.418825,8.747463,259.633,-1.9631858,-0.37923807,-0.8563121,-0.6162343,0.18650055,4
2026-01-07 14:13:34.230,1.0690111,4.619014,8.717288,0.09001219,0.15352671,0.40279123,49.29375,-18.45,-19.10625,0.33567423,4.4239483,8.74565,258.64252,-1.9631858,-0.37923807,0.73333687,0.1950655,-0.028362274,4
2026-01-07 14:13:34.280,1.4826094,4.657321,8.304887,-0.023967743,0.036351077,0.028894445,48.600002,-18.112501,-18.4125,0.37921545,4.447831,8.731745,257.60675,-1.9631858,-0.37923807,1.1033939,0.20948982,-0.42685795,4
2026-01-07 14:13:34.331,0.8607155,4.413711,8.575432,-0.07509893,0.05872097,-0.104259685,48.112503,-18.525002,-18.50625,0.34366733,4.4271574,8.743715,258.27893,-1.9631858,-0.37923807,0.5170482,-0.013446331,-0.16828346,4
2026-01-07 14:13:34.380,-0.23882163,4.6561236,8.462905,-0.0484681,0.039546777,-0.06378083,47.90625,-18.393751,-18.65625,0.3082325,4.402855,8.757297,262.21002,-1.9631858,-0.37923807,-0.5470541,0.25326872,-0.29439163,4
2026-01-07 14:13:34.430,-0.15322891,4.7626657,8.678383,-0.08149032,0.03741631,0.0629819,48.281254,-17.98125,-18.69375,0.28066224,4.3884444,8.765453,262.44025,-1.9631858,-0.37923807,-0.43389115,0.37422132,-0.087070465,4
2026-01-07 14:13:34.481,0.13826515,4.4795513,9.03871,-0.09214266,0.08961273,0.10133029,48.300003,-18.487501,-18.487501,0.2924944,4.3283043,8.79492,259.86276,-1.9631858,-0.37923807,-0.15422924,0.15124702,0.24378967,4
2026-01-07 14:13:34.531,0.30825347,4.353257,8.700529,0.077229396,0.10239553,0.1854837,48.131252,-18.75,-18.993752,0.26980376,4.318955,8.8002405,259.49603,-1.9631858,-0.37923807,0.038449705,0.034302235,-0.09971142,4
2026-01-07 14:13:34.581,0.3549404,4.5280337,7.8823104,0.0484681,0.1790923,0.20359266,47.90625,-18.768751,-19.03125,0.24937828,4.3613243,8.779923,260.80182,-1.9631858,-0.37923807,0.105562136,0.16670942,-0.89761305,4
2026-01-07 14:13:34.632,0.18794483,4.574721,7.8835077,-0.17203513,0.08428656,0.16204858,47.662502,-18.75,-18.5625,0.23357406,4.3558946,8.783052,261.1633,-1.9631858,-0.37923807,-0.045629233,0.2188263,-0.8995447,4
2026-01-07 14:13:34.682,0.17896658,4.494515,8.702923,-0.2508624,0.08109087,0.21531023,47.30625,-18.2625,-19.10625,0.23051439,4.274105,8.823223,260.58282,-1.9631858,-0.37923807,-0.05154781,0.22040987,-0.12030029,4
2026-01-07 14:13:34.732,-0.038307227,4.4220905,8.781333,-0.12409965,0.10133029,0.21424499,46.8375,-18.018751,-19.95,0.22726052,4.205996,8.855977,261.44974,-1.9631858,-0.37923807,-0.26556775,0.2160945,-0.07464409,4
2026-01-07 14:13:34.782,-0.15861586,4.211401,8.616732,-0.13155627,0.108786926,0.24726722,46.36875,-18.075,-20.1,0.19875805,4.1644955,8.876253,261.295,-1.9631858,-0.37923807,-0.3573739,0.046905518,-0.25952148,4
2026-01-07 14:13:34.833,-0.5686229,4.059369,8.435969,-0.17203513,0.22596255,0.3431382,45.037502,-18.618752,-20.38125,0.14656055,4.1131926,8.901154,261.2923,-1.9631858,-0.37923807,-0.71518344,-0.05382347,-0.4651842,4
2026-01-07 14:13:34.883,-0.94092125,4.1078515,8.739435,-0.24234052,0.23554966,0.45179194,44.49375,-18.581251,-20.71875,0.052695263,4.0365224,8.937231,261.74603,-1.9631858,-0.37923807,-0.9936165,0.07132912,-0.19779587,4
2026-01-07 14:13:34.933,-0.83497787,4.0497923,8.78672,-0.13155627,0.27496326,0.52848876,43.800003,-18.0,-21.018751,-0.059953827,3.9518123,8.974963,261.9226,-1.9631858,-0.37923807,-0.77502406,0.09798002,-0.18824291,4
2026-01-07 14:13:34.983,-0.036511578,4.246715,9.101558,-0.20079643,0.28668085,0.59985936,42.1875,-18.2625,-21.900002,-0.0954294,3.9010444,8.9968405,260.27078,-1.9631858,-0.37923807,0.05891782,0.3456707,0.104717255,4
2026-01-07 14:13:35.032,0.35194764,4.51307,9.624691,-0.034620073,0.09706936,0.5135755,40.55625,-18.675001,-22.44375,-0.07059338,3.8649683,9.012626,259.0201,-1.9631858,-0.37923807,0.42254102,0.6481018,0.6120653,4
2026-01-07 14:13:35.082,0.97264445,4.1659107,9.631873,0.08042509,-0.05419373,0.39426938,39.35625,-18.825,-22.10625,0.07580875,3.8962088,8.999122,256.20322,-2.453404,-0.477656,0.8968357,0.26970196,0.63275146,5
2026-01-07 14:13:35.132,0.56084174,4.0617633,8.805275,0.13155627,0.2078536,0.3207683,38.4,-18.84375,-22.63125,0.201291,3.9301958,8.982396,257.66714,-2.453404,-0.477656,0.35955074,0.13156748,-0.17712116,5
2026-01-07 14:13:35.182,0.30406362,4.650737,7.9607205,0.19440503,0.15885288,0.33248585,37.350002,-18.65625,-22.0125,0.15428019,4.059489,8.925644,261.44543,-2.453404,-0.477656,0.14978343,0.59124804,-0.9649234,5
2026-01-07 14:13:35.233,-0.32621,5.149928,7.7428484,-0.05059857,0.08002563,0.30372456,36.6375,-18.31875,-22.0125,0.19616139,4.141526,8.887051,266.42163,-2.453404,-0.477656,-0.5223714,1.0084019,-1.1442022,5
2026-01-07 14:13:35.283,-0.8631097,5.2462945,9.033921,-0.034620073,0.14820054,0.33142063,35.86875,-18.1875,-21.91875,0.18601681,4.1103477,8.9017315,264.7016,-2.453404,-0.477656,-1.0491265,1.1359468,0.13218975,5
2026-01-07 14:13:35.333,-0.6805518,5.125387,9.202114,0.12942581,0.13328728,0.4272916,34.575,-17.90625,-22.1625,0.19866431,4.1367617,8.889214,263.60248,-2.453404,-0.477656,-0.87921613,0.9886255,0.31290054,5
2026-01-07 14:13:35.383,-0.45370123,4.912902,9.147048,0.24873191,0.3175726,0.543402,34.21875,-17.475,-21.975,0.18808447,4.216693,8.851808,262.72748,-2.949555,-0.53957677,-0.6417857,0.69620895,0.2952404,6
2026-01-07 14:13:35.434,-0.018555064,4.9775453,9.073426,0.33288532,0.31544212,0.5924027,33.84375,-17.081251,-21.825,0.1722336,4.317258,8.803523,262.50708,-2.949555,-0.53957677,-0.19078866,0.6602874,0.26990318,6
2026-01-07 14:13:35.484,0.40701428,4.8524485,8.1756,0.19440503,0.3442034,0.4922708,31.81875,-17.04375,-20.475,0.11102176,4.503956,8.71048,261.26343,-2.949555,-0.53957677,0.29599252,0.34849262,-0.5348797,6
2026-01-07 14:13:35.534,1.91596,3.6128504,9.827001,-0.38188604,-0.035019536,0.18441847,30.956251,-16.3875,-20.493752,0.15100412,4.4739847,8.72531,252.83307,-2.949555,-0.53957677,1.7649559,-0.8611343,1.1016903,6
2026-01-07 14:13:35.584,0.9271546,2.3122003,10.431537,0.0015978495,0.16204858,-0.08934642,29.85,-16.462502,-20.8125,0.16953598,4.3073893,8.808409,248.91298,-2.949555,-0.53957677,0.7576186,-1.995189,1.6231279,6
2026-01-07 14:13:35.634,-0.3226187,2.6862943,8.342596,0.4693683,0.5519239,0.12689589,29.831251,-16.518751,-20.643751,0.018236278,4.390436,8.7689295,252.66861,-2.949555,-0.53957677,-0.34085497,-1.7041419,-0.42633343,6
2026-01-07 14:13:35.684,-0.18016368,3.8205473,7.2951326,0.11131685,0.18654893,0.45818335,29.56875,-16.125,-20.41875,-0.13255274,4.555114,8.683533,261.23663,-2.949555,-0.53957677,-0.04761094,-0.73456645,-1.3884001,6
2026-01-07 14:13:35.734,0.8631097,3.916914,8.355764,-0.44793049,0.010785485,0.4145088,28.7625,-16.237501,-20.118752,-0.01948529,4.478004,8.724534,256.2478,-2.949555,-0.53957677,0.882595,-0.56109,-0.36876965,6
2026-01-07 14:13:35.784,0.8583213,3.8851907,9.535507,-0.27323228,0.32183352,0.39000845,28.125002,-15.825001,-20.75625,2.3154668E-4,4.29731,8.814959,255.29745,-2.949555,-0.53957677,0.85808975,-0.41211915,0.7205486,6
2026-01-07 14:13:35.834,0.88286185,3.6996403,8.514978,0.19866596,0.23981059,0.2046579,26.98125,-14.94375,-22.06875,-0.058648825,4.2698584,8.8280945,258.14124,-2.949555,-0.53957677,0.9415107,-0.5702181,-0.31311607,6
2026-01-07 14:13:35.884,0.9008184,3.9390604,7.7985134,-0.069772765,0.20252743,0.29626793,26.8875,-14.3625,-22.368752,-0.09078142,4.3281746,8.799377,261.7303,-2.949555,-0.53957677,0.9915998,-0.38911414,-1.000864,6
2026-01-07 14:13:35.934,2.1350293,4.1946416,9.17099,-0.28175414,0.2728328,0.21104929,26.268751,-14.681251,-22.181252,-0.11192854,4.2456346,8.839255,257.0431,-2.949555,-0.53957677,2.2469578,-0.050992966,0.33173466,6
2026-01-07 14:13:35.986,2.1290438,4.158728,9.689334,0.07935986,0.116243556,0.006524552,25.406252,-14.250001,-22.78125,-0.15406896,4.1670947,8.875921,257.38492,-2.949555,-0.53957677,2.2831128,-0.008366585,0.81341267,6
2026-01-07 14:13:36.037,2.1709423,4.7189717,9.328408,0.2870803,0.10772169,-0.09467258,25.06875,-14.55,-22.48125,-0.18313076,4.2491965,8.836355,258.7212,-3.438136,-0.6458233,2.354073,0.4697752,0.49205303,7
2026-01-07 14:13:36.087,2.2290018,4.7165775,9.173983,0.23488387,-0.14473854,-0.35578784,25.556252,-14.606251,-21.88125,-0.20952085,4.37744,8.772942,258.2128,-3.438136,-0.6458233,2.4385226,0.33913755,0.40104103,7
2026-01-07 14:13:36.138,0.8475474,5.0302176,10.085575,0.08894696,-0.4014597,-0.35578784,26.60625,-15.056251,-21.84375,-0.1395885,4.4444604,8.740575,260.41367,-3.438136,-0.6458233,0.9871359,0.58575726,1.3450003,7
2026-01-07 14:13:36.189,1.4251486,4.9045224,10.50875,0.29773262,-0.4014597,-0.32276562,26.343752,-15.000001,-21.16875,-0.045192383,4.5188475,8.703354,257.7314,-3.438136,-0.6458233,1.470341,0.38567495,1.8053961,7
2026-01-07 14:13:36.238,1.0749966,3.810372,9.312247,0.24340574,-0.6817491,-0.6870753,27.16875,-14.75625,-20.23125,0.10099308,4.6453195,8.636041,256.05963,-3.438136,-0.6458233,0.9740035,-0.83494735,0.6762066,7
2026-01-07 14:13:36.289,-0.5141548,2.4103625,7.9008656,0.07616416,-0.5017248,-0.93101364,28.7625,-15.50625,-19.03125,0.18622223,4.694681,8.607884,252.31184,-3.438136,-0.6458233,-0.700377,-2.2843187,-0.70701885,7
2026-01-07 14:13:36.339,-1.3575124,2.2379801,6.831256,0.06657706,-0.44313693,-0.8170337,30.618752,-16.612501,-18.581251,0.12805294,4.730267,8.589446,252.24216,-3.438136,-0.6458233,-1.4855653,-2.492287,-1.7581902,7
2026-01-07 14:13:36.390,-0.6667852,2.5881321,6.5804634,-0.48840934,-0.7328803,-0.79146814,32.11875,-17.081251,-18.13125,0.17189658,4.676893,8.617859,254.85635,-3.438136,-0.6458233,-0.83868176,-2.088761,-2.0373955,7
2026-01-07 14:13:36.440,0.15861586,3.6260185,8.614936,-1.0146345,-0.42063388,-0.6636402,34.7625,-16.875,-18.91875,0.27229095,4.309118,8.804984,256.4427,-3.438136,-0.6458233,-0.11367509,-0.68309927,-0.19004822,7
2026-01-07 14:13:36.490,2.030283,3.1627405,9.723452,-0.9379377,-0.7893377,-0.786142,36.35625,-17.737501,-21.54375,0.3953997,3.8624735,9.005296,252.30704,-3.438136,-0.6458233,1.6348833,-0.699733,0.71815586,7
2026-01-07 14:13:36.541,1.6777369,3.5236664,8.230068,-0.6247592,-0.18308693,-1.2292789,37.93125,-17.85,-23.98125,0.51403373,3.5157578,9.140328,256.206,-3.438136,-0.6458233,1.1637032,0.007908583,-0.9102602,7
2026-01-07 14:13:36.591,-0.29807812,3.3955765,9.858126,-0.3712337,-0.45591974,-1.7033076,40.725002,-18.075,-25.425001,0.3181408,3.308908,9.226067,258.09915,-3.438136,-0.6458233,-0.6162189,0.08666849,0.6320591,7
2026-01-07 14:13:36.642,-1.4431051,3.7373488,9.9790325,-0.25725377,-0.59120435,-1.5648273,44.2125,-17.925001,-25.95,0.31464532,3.1982222,9.265138,262.03204,-3.438136,-0.6458233,-1.7577504,0.53912663,0.71389484,7
2026-01-07 14:13:36.691,-2.3828292,3.7600937,10.165182,-0.18588316,-0.5837477,-1.3645635,47.756252,-17.268751,-26.456251,0.358791,3.1033525,9.295744,264.597,-3.933585,-0.7131327,-2.74162,0.65674114,0.8694382,8
2026-01-07 14:13:36.742,-2.3187842,3.9558198,10.208876,0.18588316,-0.10639015,-0.8649692,50.831253,-16.612501,-27.206251,0.29371467,3.1210587,9.292099,267.1303,-3.933585,-0.7131327,-2.612499,0.83476114,0.91677666,8
2026-01-07 14:13:36.792,-1.894412,3.8456864,9.543886,0.31797206,0.11304785,-0.722228,53.775,-16.368752,-26.906252,0.15257731,3.2674558,9.245045,267.9821,-3.933585,-0.7131327,-2.0469894,0.5782306,0.29884148,8
2026-01-07 14:13:36.842,-0.6799533,3.6140475,10.08318,0.0612509,0.053394806,-0.54007316,55.7625,-15.6,-26.400002,-0.06798136,3.391016,9.201455,265.254,-3.933585,-0.7131327,-0.65865886,0.20627213,0.8254614,8
2026-01-07 14:13:36.893,1.2354081,2.52289,10.432734,-0.31264588,-0.24593568,-0.6103785,57.15,-14.94375,-26.212502,-0.049344853,3.3149517,9.22925,260.49213,-3.933585,-0.7131327,1.284753,-0.79206157,1.2034836,8
2026-01-07 14:13:36.943,-0.4237737,2.0745757,10.228628,0.09001219,0.3750952,-0.5219642,58.031254,-14.437501,-26.550001,-0.16760515,3.196268,9.269637,261.59552,-3.933585,-0.7131327,-0.25616854,-1.1216924,0.95899105,8
2026-01-07 14:13:36.993,-1.0271125,2.8844144,8.101978,0.7995905,1.0195612,0.05872097,60.300003,-13.781251,-26.775002,-0.5688516,3.3997862,9.180862,268.3532,-3.933585,-0.7131327,-0.4582609,-0.5153718,-1.0788841,8
2026-01-07 14:13:37.043,-1.1953052,3.6553473,7.15567,0.030359142,-0.24913137,-0.18095645,60.656254,-14.156251,-25.087502,-0.803439,3.6741257,9.056803,273.0718,-3.933585,-0.7131327,-0.3918662,-0.018778324,-1.9011326,8
2026-01-07 14:13:37.095,-0.9564836,3.0490158,7.5704656,-0.76004374,0.15885288,-0.006258244,60.487503,-14.437501,-23.98125,-0.7698205,3.4852955,9.134028,268.22604,-3.933585,-0.7131327,-0.18666309,-0.43627977,-1.5635629,8
2026-01-07 14:13:37.146,-0.74639237,2.9173348,7.8116817,-0.70784736,0.40385646,0.12050448,60.2625,-14.700001,-24.45,-0.8609261,3.2385852,9.2163315,266.72464,-3.933585,-0.7131327,0.11453372,-0.32125044,-1.4046497,8
2026-01-07 14:13:37.196,-0.33758244,3.3500867,8.576031,-0.23062295,0.017176883,0.27389804,60.2625,-14.512501,-26.175001,-0.97231567,2.9596953,9.298666,266.95636,-3.933585,-0.7131327,0.6347332,0.39039135,-0.72263527,8
2026-01-07 14:13:37.247,0.38845924,3.8881836,9.040505,0.18268746,0.24407151,0.30798548,59.86875,-14.718751,-27.487501,-0.93953216,2.9726324,9.297909,267.07776,-3.933585,-0.7131327,1.3279914,0.9155512,-0.25740337,8
2026-01-07 14:13:37.297,0.5847838,5.511452,10.04607,0.23062295,1.0951927,-0.030758604,59.475002,-15.618751,-27.375002,-1.1278434,3.0823932,9.241061,267.904,-3.933585,-0.7131327,1.7126272,2.429059,0.8050089,8
2026-01-07 14:13:37.347,-1.5316905,5.281609,9.995792,0.67708874,1.1175627,-0.3035914,60.187504,-15.39375,-25.95,-1.6949631,3.29141,9.080976,272.40298,-4.4335675,-0.708979,0.16327262,1.9901991,0.91481686,9
2026-01-07 14:13:37.399,-3.2519245,5.469554,10.48002,0.39466885,0.54553246,0.010785485,61.3875,-15.20625,-23.56875,-2.1493342,3.560257,8.881178,275.03323,-4.4335675,-0.708979,-1.1025903,1.909297,1.5988417,9
2026-01-07 14:13:37.449,-1.8537107,3.9145198,10.696096,0.09533835,-0.3300891,0.17163567,61.8375,-15.4125,-21.862501,-2.1904178,3.7032104,8.812417,266.3891,-4.4335675,-0.708979,0.33670712,0.21130943,1.8836794,9
2026-01-07 14:13:37.500,-1.1546037,0.62249243,10.392631,-0.59599787,-1.0662982,-0.30785236,61.143753,-15.806251,-23.118752,-1.8317678,3.56362,8.950733,256.46747,-4.4335675,-0.708979,0.6771641,-2.9411278,1.4418974,9
2026-01-07 14:13:37.550,-2.6342204,0.29269117,8.313267,-0.55232334,0.01611165,-0.047802333,61.4625,-15.13125,-24.45,-1.5767854,3.2274714,9.125107,255.00255,-4.4335675,-0.708979,-1.0574349,-2.9347801,-0.81184006,9
2026-01-07 14:13:37.600,-3.0017304,0.42676646,7.475296,-0.56617135,0.51996684,0.0661776,61.987503,-15.056251,-25.968752,-1.7991015,2.9692523,9.171541,255.24411,-4.4335675,-0.708979,-1.202629,-2.542486,-1.6962452,9
2026-01-07 14:13:37.650,-3.8313212,1.5975311,7.143699,-0.541671,0.19720127,0.58281565,61.537502,-15.6,-26.643751,-1.9565886,2.7169838,9.217383,262.96002,-4.4335675,-0.708979,-1.8747326,-1.1194527,-2.0736842,9
2026-01-07 14:13:37.700,-1.6980876,2.2140381,8.507795,-0.5938674,-0.20119588,0.90984213,60.562504,-16.1625,-27.91875,-1.8827373,2.5293062,9.285919,263.69406,-4.4335675,-0.708979,0.1846497,-0.31526804,-0.77812386,9
2026-01-07 14:13:37.751,-0.91458505,2.0805612,9.879673,-0.17949176,-0.37056795,0.57961994,59.11875,-16.893751,-30.150002,-1.6078173,2.3754523,9.3777685,260.6307,-4.4335675,-0.708979,0.69323224,-0.29489112,0.5019045,9
2026-01-07 14:13:37.801,-0.5919664,2.4073699,9.442732,0.47362924,-0.07336792,0.52848876,57.7125,-17.23125,-30.712502,-1.4378743,2.4677875,9.38152,261.57132,-4.4335675,-0.708979,0.8459079,-0.060417652,0.061211586,9
2026-01-07 14:13:37.850,-0.4417302,3.614646,9.371504,0.61637044,-0.33648047,0.41557404,56.643753,-17.71875,-29.5125,-1.2867302,2.7728326,9.318053,264.84747,-4.4335675,-0.708979,0.84499997,0.8418133,0.053450584,9
2026-01-07 14:13:37.901,-0.19512744,4.1054573,11.519103,0.7047848,-0.5635083,0.14926578,54.99375,-18.243752,-27.45,-1.0145648,3.0847316,9.253404,262.00296,-4.928705,-0.77853996,0.8194373,1.0207257,2.2656994,10
2026-01-07 14:13:37.951,-0.6691794,4.6459484,12.559982,1.2853369,-0.104259685,0.3750952,53.850002,-18.525002,-26.475,-0.80881876,3.5143583,9.119511,262.1451,-4.928705,-0.77853996,0.13963938,1.1315901,3.4404716,10
2026-01-07 14:13:38.000,1.4652514,4.068946,11.7387705,1.2075748,-0.5720301,-0.07975932,52.406254,-19.95,-23.53125,-0.62890214,4.114184,8.87966,256.30548,-4.928705,-0.77853996,2.0941536,-0.045238018,2.8591108,10
2026-01-07 14:13:38.051,-0.45729253,1.8662802,10.109517,1.3662945,-0.5219642,-0.74672836,52.593754,-20.25,-21.2625,-0.4556598,4.6158776,8.640395,253.14069,-4.928705,-0.77853996,-0.0016327202,-2.7495975,1.4691219,10
2026-01-07 14:13:38.101,-1.1043255,2.087744,6.095039,1.0701597,0.06511237,-0.30785236,54.281254,-19.706251,-17.493752,-0.46689767,5.1379485,8.339896,258.66068,-4.928705,-0.77853996,-0.63742787,-3.0502045,-2.2448573,10
2026-01-07 14:13:38.151,-1.702876,4.5394063,5.027225,-0.1965355,0.7010565,0.19400556,55.48125,-19.5375,-14.437501,-0.6733238,5.3532386,8.189008,276.6762,-4.928705,-0.77853996,-1.0295522,-0.8138323,-3.1617827,10
2026-01-07 14:13:38.202,-0.7134721,5.193622,7.1023993,-0.36377707,0.6563167,0.15778764,55.18125,-19.85625,-13.81875,-0.9077862,5.220652,8.251733,264.95856,-4.928705,-0.77853996,0.19431406,-0.027029991,-1.1493335,10
2026-01-07 14:13:38.252,-1.1408371,4.4801497,6.947375,0.11451255,0.23448442,-0.2322208,54.525,-20.268751,-14.3625,-1.1357945,5.1555753,8.264405,264.73032,-4.928705,-0.77853996,-0.005042553,-0.6754255,-1.3170304,10
2026-01-07 14:13:38.302,-2.094328,3.8193502,6.1704564,0.1741656,0.28668085,0.02037258,55.593754,-19.893751,-13.5375,-1.2810618,5.2165365,8.204696,268.0489,-4.928705,-0.77853996,-0.81326616,-1.3971863,-2.0342393,10
2026-01-07 14:13:38.352,-1.0217255,5.450999,7.569867,0.03675054,0.10239553,0.33248585,55.331253,-19.650002,-13.35,-1.3492336,5.277196,8.154824,265.67642,-4.928705,-0.77853996,0.3275081,0.17380285,-0.5849571,10
2026-01-07 14:13:38.402,-1.146224,7.6213427,8.416218,0.023967743,-0.058454663,0.46883568,54.937504,-20.493752,-13.51875,-1.2374827,5.3272376,8.1399975,268.5229,-4.928705,-0.77853996,0.091258645,2.294105,0.27622032,10
2026-01-07 14:13:38.452,1.2258313,7.3567834,12.352285,0.14540431,-0.43674555,0.4081174,53.9625,-20.56875,-13.575001,-0.95945346,5.3478045,8.163996,256.19492,-5.4250674,-0.83874345,2.1852846,2.0089788,4.1882896,11
2026-01-07 14:13:38.502,-0.5662287,6.059126,10.390237,0.9764192,0.03422061,-0.17882599,53.2125,-20.325,-12.750001,-0.8465077,5.5609837,8.033011,259.51926,-5.4250674,-0.83874345,0.28027904,0.49814224,2.3572254,11
2026-01-07 14:13:38.552,-2.7234044,6.220136,8.940548,0.44912887,-0.41850343,0.18761417,53.475002,-20.625,-11.175,-0.840219,5.8943553,7.792368,266.87622,-5.4250674,-0.83874345,-1.8831854,0.32578087,1.14818,11
2026-01-07 14:13:38.603,-0.2705448,3.7816415,8.343194,-0.08894696,-0.32902384,0.0629819,53.362503,-20.212502,-9.375,-0.6339217,5.986059,7.7418103,255.37573,-5.4250674,-0.83874345,0.3633769,-2.2044177,0.6013837,11
2026-01-07 14:13:38.652,-1.9542671,3.9228995,7.73806,-0.16244803,0.4081174,0.3527253,53.100002,-19.893751,-9.431251,-0.5902477,5.897824,7.8126607,260.66394,-5.4250674,-0.83874345,-1.3640194,-1.9749243,-0.0746007,11
2026-01-07 14:13:38.702,-0.24540567,4.148553,7.20116,0.17310037,0.30798548,0.4496615,52.425003,-20.475,-9.675,-0.6308379,5.9083023,7.8015633,256.99133,-5.4250674,-0.83874345,0.38543224,-1.7597494,-0.6004033,11
2026-01-07 14:13:38.753,-1.9183542,4.7022123,6.3177,-0.20825306,0.40598693,0.46777046,50.568752,-20.625,-9.75,-0.63161045,5.9241424,7.7894793,266.40173,-5.4250674,-0.83874345,-1.2867436,-1.22193,-1.4717793,11
2026-01-07 14:13:38.803,-0.15322891,4.823718,7.01142,-0.23062295,0.6840128,0.64779484,49.275,-20.456251,-9.675,-0.68027794,5.8498497,7.8413568,257.62463,-5.4250674,-0.83874345,0.52704906,-1.0261316,-0.829937,11
2026-01-07 14:13:38.854,-0.6745663,4.63697,7.111976,-0.07190323,0.06724283,0.41983497,47.643753,-20.643751,-9.806251,-0.69522303,5.787472,7.886205,258.3937,-5.4250674,-0.83874345,0.020656705,-1.1505017,-0.77422905,11
2026-01-07 14:13:38.905,-0.5129577,5.3606176,5.9064956,-0.056989968,0.38681275,0.34207296,46.36875,-21.5625,-10.743751,-0.65523195,5.812862,7.8709393,262.29413,-5.4250674,-0.83874345,0.14227426,-0.45224428,-1.9644437,11
2026-01-07 14:13:38.954,-1.1701661,6.4098763,7.1155677,-0.4063864,0.33248585,0.30798548,45.75,-21.35625,-10.743751,-0.72309434,5.7315965,7.9244123,264.75177,-5.4250674,-0.83874345,-0.4470718,0.6782799,-0.80884457,11
2026-01-07 14:13:39.005,-0.6619968,6.6870055,8.724471,-0.32755914,0.28028944,0.29946363,44.568752,-21.50625,-11.1,-0.7512159,5.605133,8.011775,259.19833,-5.4250674,-0.83874345,0.08921909,1.0818725,0.7126961,11
2026-01-07 14:13:39.055,-1.6813282,6.8408327,9.431359,0.07616416,0.23448442,0.035285845,43.36875,-22.2,-12.168751,-0.8080312,5.54123,8.050605,260.64514,-5.9129896,-0.9479778,-0.873297,1.2996025,1.3807545,12
2026-01-07 14:13:39.105,-1.2791022,7.068282,9.730036,0.08894696,0.27070233,0.3782909,43.74375,-21.487501,-12.1125,-0.873797,5.5995955,8.003211,260.37793,-5.9129896,-0.9479778,-0.4053052,1.4686866,1.7268248,12
2026-01-07 14:13:39.154,-0.091578215,5.6778493,9.211093,-0.19440503,0.1790923,-0.06378083,42.84375,-21.993752,-11.962501,-0.88752943,5.603634,7.9988728,254.03447,-5.9129896,-0.9479778,0.79595125,0.07421541,1.2122202,12
2026-01-07 14:13:39.204,-0.4794389,3.6888664,9.258977,-0.19973119,0.1918751,-0.2865477,42.956253,-21.975,-11.962501,-0.9912033,5.4608006,8.085021,250.24957,-5.9129896,-0.9479778,0.5117644,-1.7719343,1.1739559,12
2026-01-07 14:13:39.254,-1.2174516,2.9430726,7.848193,0.34034196,0.44540057,-0.30572188,43.10625,-22.29375,-12.50625,-1.1653535,5.428312,8.083673,250.6142,-5.9129896,-0.9479778,-0.052098036,-2.4852393,-0.23547935,12
2026-01-07 14:13:39.304,-1.1145009,5.2582655,6.703765,0.22955772,-0.12662958,0.1790923,44.25,-22.556252,-12.356251,-1.337955,5.6037297,7.9358983,261.87915,-5.9129896,-0.9479778,0.22345412,-0.34546423,-1.2321334,12
2026-01-07 14:13:39.354,-0.41359833,5.1864395,7.3388267,-0.3456681,-0.1340862,0.071503766,44.268753,-22.087502,-12.093751,-1.2134405,5.568446,7.9806237,257.49734,-5.9129896,-0.9479778,0.79984224,-0.38200665,-0.64179707,12
2026-01-07 14:13:39.454,-0.29209262,4.947618,5.8280854,0.26897132,0.08641703,-0.59546524,44.1375,-22.931252,-12.13125,-1.216478,5.57982,7.972213,259.28503,-5.9129896,-0.9479778,0.92438537,-0.63220215,-2.1441274,12
2026-01-07 14:13:39.554,-1.0049661,6.6600704,9.379285,-0.1422086,0.10239553,0.3633776,45.787502,-22.087502,-12.150001,-1.2204455,5.5120826,8.018595,259.41986,-5.9129896,-0.9479778,0.21547937,1.1479878,1.3606901,12
2026-01-07 14:13:39.654,-2.0033484,6.477513,9.705495,0.50665146,0.25898477,0.6925346,44.8125,-22.575,-12.7875,-0.8305604,5.626202,7.9891424,260.2618,-6.3985796,-1.0671518,-1.1727879,0.85131073,1.7163525,13
2026-01-07 14:13:39.754,-1.0726024,4.466982,8.796896,-0.38508174,-0.19906542,0.28348514,41.8875,-22.987501,-10.5375,-0.4725481,5.7973566,7.8954253,251.43417,-6.3985796,-1.0671518,-0.60005426,-1.3303747,0.90147066,13
2026-01-07 14:13:39.854,0.09876082,4.554969,6.0423665,0.74526364,0.70851314,-0.109585844,39.862503,-23.56875,-10.931251,-0.60199136,5.9221745,7.7933197,252.48528,-6.3985796,-1.0671518,0.7007522,-1.3672056,-1.7509532,13
2026-01-07 14:13:39.954,-0.2873042,4.9422307,6.5750766,-0.25618854,0.07363423,-0.030758604,40.2,-22.48125,-8.700001,-0.6111959,6.1474185,7.616172,253.60611,-6.3985796,-1.0671518,0.32389173,-1.2051878,-1.0410953,13
2026-01-07 14:13:40.055,-0.7697359,6.4421983,7.685986,0.17629607,-0.18734786,0.019307349,39.862503,-23.38125,-9.0375,-0.6338831,6.062572,7.6820445,256.0175,-6.3985796,-1.0671518,-0.13585275,0.37962627,0.003941536,13
2026-01-07 14:13:40.157,-0.7062895,6.8288617,7.017405,0.53754324,-0.19693495,-0.090411656,40.350002,-23.1,-8.38125,-0.53116655,6.3365283,7.465699,258.5185,-6.3985796,-1.0671518,-0.17512298,0.4923334,-0.44829416,13
2026-01-07 14:13:40.256,-0.3716998,7.189189,7.395689,-0.4223649,0.0789604,0.16950521,40.050003,-22.743752,-6.8437505,-0.56647855,6.47353,7.344583,255.63406,-6.3985796,-1.0671518,0.19477874,0.71565914,0.051105976,13
2026-01-07 14:13:40.356,1.5167267,4.221576,8.175002,-0.43408245,0.057655737,-0.2673735,39.15,-23.643751,-8.625,-0.5976133,6.0365667,7.7053943,242.93068,-6.3985796,-1.0671518,2.11434,-1.8149905,0.46960783,13
2026-01-07 14:13:40.457,0.39743748,5.3857565,7.4345946,-0.89213264,-0.055258963,-0.5762911,41.11875,-24.16875,-12.3,-0.8153566,5.6444864,7.9778037,251.85684,-6.3985796,-1.0671518,1.2127941,-0.25872993,-0.5432091,13
2026-01-07 14:13:40.558,-1.2545617,4.7626657,6.9222355,-0.30518925,-0.009453943,-0.44420218,44.381252,-25.087502,-16.10625,-1.1884583,5.0950813,8.294462,259.64725,-6.3985796,-1.0671518,-0.06610334,-0.33241558,-1.3722267,13
2026-01-07 14:13:40.659,-1.4856021,6.498462,9.076419,-0.25831902,-0.052063264,-0.19813335,46.631252,-24.768751,-18.618752,-1.3151525,4.7901387,8.455492,263.0026,-6.3985796,-1.0671518,-0.17044961,1.7083235,0.62092686,13
2026-01-07 14:13:40.761,-3.591901,6.7360864,10.45069,0.11025162,0.15352671,0.4272916,48.093754,-24.675001,-19.59375,-1.2822404,4.7777176,8.467566,265.1943,-6.8947473,-1.1289405,-2.3096607,1.9583688,1.9831247,14
2026-01-07 14:13:40.862,-0.31244332,3.0178912,10.5704,-0.22955772,-0.080824554,0.33568156,45.018753,-24.4125,-20.2875,-0.898168,4.793507,8.507994,248.51968,-6.8947473,-1.1289405,0.60084254,-1.7864778,2.0701447,14
2026-01-07 14:13:40.962,-3.5128925,3.738546,5.8292828,-0.28281936,0.3015941,0.30372456,43.631252,-24.88125,-21.09375,-1.1860975,4.7333264,8.50642,265.1071,-6.8947473,-1.1289405,-2.326795,-0.99478054,-2.6771374,14
2026-01-07 14:13:41.063,-0.93613285,3.4674027,8.63828,-0.4798875,0.15885288,0.77668804,41.4,-25.518751,-24.45,-1.1421993,4.2001534,8.787746,251.30177,-6.8947473,-1.1289405,0.20606643,-0.73275065,-0.14946651,14
2026-01-07 14:13:41.164,-1.252766,4.8518496,6.8384385,0.04420717,-0.041410934,0.54233676,38.325,-24.937502,-25.875002,-0.9477484,4.3346033,8.745477,266.6532,-6.8947473,-1.1289405,-0.3050176,0.51724625,-1.9070382,14
2026-01-07 14:13:41.265,-0.93493575,5.48751,10.918159,-0.18481793,-0.19586973,0.49440128,36.037502,-24.50625,-26.7,-0.712688,4.2171803,8.824842,255.61664,-6.8947473,-1.1289405,-0.22224772,1.27033,2.093316,14
2026-01-07 14:13:41.367,2.4774003,2.7742813,12.698247,-0.08042509,-0.15219517,-0.27589536,32.41875,-24.0375,-29.7,-0.3417928,4.079204,8.911434,243.50848,-7.3782873,-1.2561771,2.8191931,-1.3049228,3.7868128,15
2026-01-07 14:13:41.467,-0.04189853,3.1824925,5.475539,-0.09320789,0.31970307,0.04167724,34.55625,-24.31875,-28.612501,-0.58831704,4.2738366,8.806736,259.25577,-7.3782873,-1.2561771,0.5464185,-1.0913441,-3.3311968,15
2026-01-07 14:13:41.568,-0.8888474,2.7641058,7.2628107,0.12409965,0.06830807,-0.83194697,36.5625,-24.056252,-30.88125,-0.9289638,3.898264,8.950472,252.75305,-7.3782873,-1.2561771,0.04011637,-1.1341581,-1.6876612,15
2026-01-07 14:13:41.668,-1.5167267,4.5801077,8.115147,-0.22316632,0.022503048,-0.19706811,41.34375,-23.15625,-31.875002,-1.239161,3.9333131,8.89741,267.75476,-7.3782873,-1.2561771,-0.27756572,0.64679456,-0.78226376,15
2026-01-07 14:13:41.818,-2.36188,7.176021,11.448474,0.20292689,0.32929015,0.38681275,40.875,-23.79375,-31.800001,-0.8981533,4.2771215,8.778949,270.5739,-7.875073,-1.31278,-1.4637268,2.8988996,2.6695251,16
2026-01-07 14:13:41.919,-2.2661119,1.1947067,8.772355,0.08149032,0.17376614,-0.7967943,40.725002,-23.081251,-31.5375,-0.85405725,4.303889,8.770263,240.89542,-7.875073,-1.31278,-1.4120545,-3.1091821,0.0020923615,16
2026-01-07 14:13:42.020,-1.869273,3.6948519,6.7450647,-1.1722889,0.010785485,0.52209735,43.59375,-22.2,-32.30625,-1.2230015,3.937158,8.897945,270.57767,-7.875073,-1.31278,-0.64627147,-0.24230623,-2.1528807,16
2026-01-07 14:13:42.120,-0.75716627,3.3476925,7.9595237,0.24660145,0.050199106,-0.17989123,43.256252,-20.550001,-36.881252,-1.1708518,3.343941,9.144263,265.38586,-7.875073,-1.31278,0.41368556,0.0037515163,-1.1847396,16
2026-01-07 14:13:42.220,-3.3686419,5.0122614,8.280347,-0.21038352,-0.081889786,-0.00838871,43.800003,-20.23125,-36.206253,-1.3384738,3.514005,9.057076,284.22748,-7.875073,-1.31278,-2.030168,1.4982564,-0.7767296,16
2026-01-07 14:13:42.370,-0.45310268,6.541558,13.887567,0.3456681,0.25472385,0.9812128,42.393753,-19.40625,-35.475002,-1.1235105,3.8456445,8.950929,267.4068,-8.367396,-1.2254999,0.6704078,2.6959133,4.936638,17
2026-01-07 14:13:42.470,-0.32800564,0.59735334,6.499659,0.5556522,0.58068514,-0.29826525,40.66875,-19.237501,-31.687502,-1.1292156,4.4572706,8.66187,247.60748,-8.367396,-1.2254999,0.8012099,-3.8599172,-2.162211,17
2026-01-07 14:13:42.569,1.2958617,4.258686,8.237251,-1.0636352,0.21531023,0.035285845,42.80625,-17.85,-31.143751,-1.5898513,4.139971,8.746622,264.0287,-8.367396,-1.2254999,2.885713,0.118715286,-0.5093708,17
2026-01-07 14:13:42.670,-0.87208796,2.144606,6.730101,0.6206314,0.15565717,-1.0662982,44.25,-17.175001,-31.612501,-1.8169574,3.776057,8.866254,262.5368,-8.367396,-1.2254999,0.9448694,-1.6314509,-2.1361527,17
2026-01-07 14:13:42.770,-7.5495167,6.1650696,10.664971,0.74526364,-0.3726984,0.41983497,48.581253,-15.58125,-26.60625,-1.9549472,4.226462,8.630504,286.41333,-8.367396,-1.2254999,-5.594569,1.9386077,2.0344677,17
2026-01-07 14:13:42.871,0.81761986,4.214992,13.098079,-0.13688244,-0.6604445,1.283739,44.41875,-15.50625,-22.875,-1.2327576,4.8002896,8.462147,259.32138,-8.83836,-1.0575901,2.0503774,-0.5852976,4.635932,18
2026-01-07 14:13:42.974,-1.905186,4.272453,3.8815994,-0.34353766,1.3412615,0.9577776,40.85625,-13.968751,-20.25,-1.1647321,4.9517283,8.384162,297.09494,-8.83836,-1.0575901,-0.76679015,-0.7439189,-4.464854,18
2026-01-07 14:13:43.074,-0.74758947,2.8646624,8.278551,-0.03675054,0.053394806,0.052329574,37.800003,-12.20625,-21.956251,-1.3075713,4.3785396,8.676926,264.70264,-8.83836,-1.0575901,0.5599818,-1.5138772,-0.39837456,18
2026-01-07 14:13:43.175,-1.2653356,4.767454,5.221155,0.056989968,-0.10639015,0.6957303,38.006252,-10.33125,-18.956251,-1.5360657,4.8381963,8.390635,287.82684,-8.83836,-1.0575901,0.27073014,-0.07074213,-3.1694794,18
2026-01-07 14:13:43.275,0.35913026,8.696938,16.139912,0.66324073,-0.31411058,-0.46337637,35.925003,-9.20625,-17.681252,-1.0817455,4.759146,8.505923,269.94955,-9.338288,-1.0660367,1.4408758,3.9377913,7.6339884,19
2026-01-07 14:13:43.375,-3.141791,2.1894975,5.680842,0.11557778,-0.07975932,-0.9629707,39.54375,-8.306251,-12.431251,-1.5040703,5.3886075,8.054258,273.44736,-9.338288,-1.0660367,-1.6377208,-3.19911,-2.3734164,19
2026-01-07 14:13:43.475,0.8026561,3.116652,7.402273,-1.1477885,0.40066078,-1.1025162,41.8125,-7.2375,-12.50625,-1.8298903,4.511429,8.512867,265.1841,-9.338288,-1.0660367,2.6325464,-1.3947768,-1.1105938,19
2026-01-07 14:13:43.625,-2.142212,3.9875429,9.387665,0.19440503,-0.75098926,1.2624342,47.550003,-6.2625003,-14.38125,-2.430734,3.7607028,8.724622,274.80243,-9.338288,-1.0660367,0.288522,0.22684002,0.663043,19
2026-01-07 14:13:43.726,-2.255338,8.582016,10.547656,0.31051543,0.029959679,0.4954665,43.74375,-5.68125,-12.900001,-1.5569507,4.3393073,8.655444,282.79678,-9.837207,-1.0331701,-0.69838727,4.2427087,1.8922119,20
2026-01-07 14:13:43.826,-4.9775453,0.27114335,8.832211,-0.08575126,0.17376614,-0.7690982,42.881252,-5.4375,-11.775001,-1.5606493,4.2047863,8.720924,261.71423,-9.837207,-1.0331701,-3.4168959,-3.9336429,0.11128616,20
2026-01-07 14:13:43.927,-0.33877954,2.3570917,8.899846,-2.748834,0.6914694,1.8760085,42.99375,-4.55625,-14.437501,-1.9424381,3.172068,9.07388,269.60138,-9.837207,-1.0331701,1.6036586,-0.81497645,-0.17403412,20
2026-01-07 14:13:44.026,-0.4201824,1.7304093,10.845135,0.6547189,0.52316254,0.064047135,38.7,-4.275,-20.456251,-2.3837113,1.7702639,9.346361,268.8394,-10.336872,-1.0514587,1.9635289,-0.039854646,1.4987736,21
2026-01-07 14:13:44.126,-0.6452374,3.145981,7.6285253,0.75804645,-0.4900072,0.12050448,37.95,-2.6437502,-18.35625,-2.0636144,2.839417,9.156942,278.96655,-10.336872,-1.0514587,1.4183769,0.3065641,-1.5284171,21
2026-01-07 14:13:44.227,0.09756372,4.805163,13.204621,1.0957253,-0.973623,-0.42076704,38.381252,-1.6875001,-14.156251,-1.2935628,3.4204228,9.099329,274.69095,-10.336872,-1.0514587,1.3911265,1.3847401,4.1052923,21
2026-01-07 14:13:44.328,0.6679823,1.2659341,7.78355,0.07829463,-0.66257495,-1.9078324,41.662502,-1.0125,-10.96875,-0.90354615,3.8318527,8.981697,270.2414,-10.336872,-1.0514587,1.5715284,-2.5659184,-1.1981473,21
2026-01-07 14:13:44.429,-0.7104794,1.323395,7.319673,-0.7483262,0.6754909,-2.1549664,47.268753,-0.056250002,-13.293751,-1.317257,3.077815,9.217499,273.8714,-10.336872,-1.0514587,0.60677767,-1.75442,-1.8978257,21
2026-01-07 14:13:44.528,-3.9145198,2.2421699,7.192182,0.47362924,-0.40678588,-1.2420617,53.68125,1.7812501,-15.056251,-1.8414228,2.5261617,9.295055,286.70227,-10.336872,-1.0514587,-2.073097,-0.2839918,-2.1028733,21
2026-01-07 14:13:44.627,-4.068946,4.836886,11.399393,0.943397,0.511445,1.251782,56.006252,2.4375,-14.175,-1.6789461,3.1216018,9.143693,286.49045,-10.814083,-0.90222937,-2.3899999,1.7152841,2.2557,22
2026-01-07 14:13:44.727,-0.3705027,2.984971,11.082161,-0.27536273,-0.7935986,0.7990579,51.6375,3.16875,-12.843751,-1.8075105,3.8495944,8.836511,277.61795,-10.814083,-0.90222937,1.4370078,-0.8646233,2.2456503,22
2026-01-07 14:13:44.828,-2.72939,2.2319946,6.0166287,-0.8729585,0.14180915,0.34207296,49.725002,2.30625,-14.6625,-1.5406531,3.415705,9.062546,288.37997,-10.814083,-0.90222937,-1.1887368,-1.1837103,-3.045917,22
2026-01-07 14:13:44.929,-0.27952304,1.6298528,9.829993,-1.0370044,0.19720127,0.23768012,48.506252,2.025,-18.09375,-1.2805426,2.1002796,9.493125,276.16336,-10.814083,-0.90222937,1.0010196,-0.4704268,0.3368683,22
2026-01-07 14:13:45.029,-2.618658,2.9131448,8.669404,1.103182,-0.42063388,-0.21198137,47.8875,2.5500002,-20.737501,-1.3069317,2.3060653,9.441629,287.73953,-10.814083,-0.90222937,-1.3117263,0.6070795,-0.7722254,22
2026-01-07 14:13:45.179,2.1350293,5.563526,14.843452,0.22316632,0.05126434,0.5913375,47.34375,2.625,-18.900002,-0.77591497,2.9878755,9.308112,277.61353,-11.300379,-0.78596973,2.9109442,2.5756507,5.5353403,23
2026-01-07 14:13:45.280,3.0017304,1.929128,8.872911,1.4834701,-0.01904104,-1.1131685,46.143753,1.63125,-17.681252,-1.4457031,3.804662,8.922157,272.31183,-11.300379,-0.78596973,4.4474335,-1.8755339,-0.049245834,23
2026-01-07 14:13:45.380,-3.1908724,1.3862427,6.671443,-0.098534055,-1.0822767,-1.9909205,49.050003,1.1437501,-15.975,-1.5668354,4.0252166,8.80415,281.6154,-11.300379,-0.78596973,-1.624037,-2.6389737,-2.1327066,23
2026-01-07 14:13:45.481,-2.8874073,2.03567,6.302736,0.7292852,-0.5283556,-0.9065133,54.43125,1.1625,-17.15625,-1.4546527,3.9582891,8.853604,285.6946,-11.300379,-0.78596973,-1.4327546,-1.9226191,-2.5508685,23
2026-01-07 14:13:45.580,-4.585495,4.044405,10.1065235,-0.22955772,0.13328728,-0.5187685,56.9625,1.44375,-17.1375,-1.4684061,4.0730996,8.799092,288.23645,-11.300379,-0.78596973,-3.1170888,-0.02869463,1.3074312,23
2026-01-07 14:13:45.682,-4.0898952,3.752911,12.704233,-0.03248961,0.25898477,0.93647295,57.300003,1.1437501,-17.306252,-1.8206334,3.9590878,8.785289,281.82993,-11.768549,-0.61042213,-2.2692618,-0.20617676,3.9189444,24
2026-01-07 14:13:45.784,-3.6170402,2.822764,7.475895,-0.22529678,0.4177045,0.67122996,56.156254,-0.22500001,-16.96875,-1.7003553,3.9843051,8.797983,286.24176,-11.768549,-0.61042213,-1.9166849,-1.1615412,-1.3220882,24
2026-01-07 14:13:45.887,-0.50517654,3.1896753,8.55987,0.19014409,-0.09360735,1.2144988,52.537502,-2.7375002,-18.09375,-1.4232937,3.9244852,8.873728,275.5148,-11.768549,-0.61042213,0.91811717,-0.7348099,-0.31385803,24
2026-01-07 14:13:45.989,-0.57281274,3.6361938,6.603208,0.95191884,0.52848876,0.6328816,48.581253,-4.40625,-16.2,-1.1706024,4.6457663,8.556689,277.17804,-11.768549,-0.61042213,0.5977897,-1.0095725,-1.9534812,24
2026-01-07 14:13:46.091,-1.1109096,6.589442,8.843582,-0.36697277,0.15246147,-0.053128496,46.18125,-4.7250004,-12.95625,-1.3674041,5.082532,8.274568,279.33215,-11.768549,-0.61042213,0.25649452,1.5069098,0.56901455,24
2026-01-07 14:13:46.192,1.4550761,4.763264,9.715671,-0.2093183,-0.11384678,-0.23328604,45.91875,-5.34375,-13.087501,-1.1854839,4.7888064,8.475397,267.42587,-12.268438,-0.6209574,2.6405602,-0.02554226,1.2402735,25
2026-01-07 14:13:46.293,0.85532856,3.3997664,8.088212,-0.40106022,0.004394086,-0.32276562,46.74375,-6.15,-14.7375,-1.1223866,4.3090973,8.73741,267.71362,-12.268438,-0.6209574,1.9777151,-0.90933084,-0.6491976,25
2026-01-07 14:13:46.394,0.79966336,4.818331,6.3404446,0.06870753,-0.10745538,-0.8937305,48.206253,-6.05625,-15.468751,-1.3185346,4.244026,8.741859,270.88895,-12.268438,-0.6209574,2.118198,0.5743046,-2.4014149,25
2026-01-07 14:13:46.494,-2.7150247,5.795764,9.51755,0.1709699,-0.40039447,-1.0950595,51.787502,-5.9437504,-15.450001,-1.5118426,4.241712,8.711636,281.84714,-12.268438,-0.6209574,-1.2031821,1.5540519,0.8059149,25
2026-01-07 14:13:46.596,-6.1129956,4.1293993,10.635642,-0.112382084,0.33994249,-0.09893352,55.65,-4.78125,-14.231251,-1.9742851,4.234768,8.6220255,281.33768,-12.75832,-0.5208791,-4.1387105,-0.105368614,2.0136166,26
2026-01-07 14:13:46.696,-4.953005,1.8848352,7.5136037,0.013315413,0.21957116,0.6925346,55.7625,-3.8437502,-14.343751,-2.063467,4.0789623,8.676091,276.99664,-12.75832,-0.5208791,-2.8895378,-2.194127,-1.1624875,26
2026-01-07 14:13:46.796,-1.0283096,2.8125885,8.302493,-1.0402,0.4113131,1.032344,53.812504,-4.125,-16.25625,-1.8895805,3.6082656,8.920778,273.71625,-12.75832,-0.5208791,0.8612709,-0.7956772,-0.6182852,26
2026-01-07 14:13:46.898,-0.19812019,3.7750576,9.209297,0.32968962,-0.11278155,0.7244916,49.95,-4.7250004,-19.462502,-1.6776576,3.404665,9.042351,273.9439,-12.75832,-0.5208791,1.4795374,0.37039256,0.16694641,26
2026-01-07 14:13:47.000,0.98102415,3.4261026,9.181165,0.5428694,-0.5720301,-0.32276562,47.98125,-3.5625002,-18.112501,-1.1828413,4.0400124,8.857176,271.3294,-12.75832,-0.5208791,2.1638656,-0.6139097,0.3239889,26
2026-01-07 14:13:47.101,1.364695,3.6098576,10.407595,-0.5651061,-0.20439158,-0.74033695,48.61875,-2.5687501,-18.075,-1.1519521,4.0101786,8.874788,271.58734,-12.75832,-0.5208791,2.516647,-0.400321,1.5328064,26
2026-01-07 14:13:47.201,0.29388827,2.915539,10.031705,-0.42449537,-0.7445979,-0.21304661,50.081253,-1.2750001,-21.243752,-0.8935177,3.3857872,9.160155,274.83875,-13.257656,-0.49512148,1.187406,-0.47024822,0.8715496,27
2026-01-07 14:13:47.302,0.41240123,3.198055,8.634089,0.6611102,-0.13302097,-0.82129467,51.675003,0.52500004,-23.550001,-0.72896725,3.2455733,9.22525,278.412,-13.257656,-0.49512148,1.1413685,-0.047518253,-0.5911608,27
2026-01-07 14:13:47.404,-0.56443304,3.5314474,6.7492547,0.4374113,-0.5006595,-1.1504517,55.050003,2.2875001,-22.987501,-0.9419746,3.9154768,8.941594,285.55844,-13.257656,-0.49512148,0.37754154,-0.3840294,-2.1923394,27
2026-01-07 14:13:47.504,-4.124611,4.76087,10.7912655,0.2870803,-0.54433405,-0.60079145,57.693752,3.8812501,-24.35625,-0.91178036,4.1002154,8.861562,293.9819,-13.257656,-0.49512148,-3.2128305,0.66065454,1.9297037,27
2026-01-07 14:13:47.605,-3.180697,2.1470003,9.490017,-0.49906167,0.3633776,0.5444672,58.0125,4.275,-24.075,-1.1361009,4.239061,8.769835,285.16437,-13.712804,-0.2881428,-2.0445962,-2.0920606,0.72018147,28
2026-01-07 14:13:47.756,0.81402856,2.6593595,8.141483,-0.3509943,0.543402,1.0813447,55.518753,5.3250003,-29.212502,-1.0740637,3.1631217,9.220164,281.9828,-13.712804,-0.2881428,1.8880923,-0.50376225,-1.078681,28
2026-01-07 14:13:47.856,-2.3014264,2.9945478,7.268198,0.084686026,-0.25232708,-0.4452674,53.4,5.1000004,-31.218752,-1.1606643,3.1890943,9.200702,297.12378,-13.712804,-0.2881428,-1.1407621,-0.19454646,-1.9325037,28
2026-01-07 14:13:47.958,-2.9245174,4.4699745,10.857106,-0.55977994,-0.4772244,0.6957303,53.850002,5.5875,-32.49375,-1.3043898,3.0492184,9.228826,296.75885,-13.712804,-0.2881428,-1.6201276,1.4207561,1.6282806,28
2026-01-07 14:13:48.061,2.0733786,0.4381389,12.7257805,-0.5906717,-0.21291345,0.46777046,52.331253,6.99375,-35.11875,-0.78399855,2.608532,9.420791,277.8317,-14.17927,-0.10811676,2.857377,-2.170393,3.3049898,29
2026-01-07 14:13:48.113,-0.31184477,1.2880806,9.153631,-0.16990466,0.35485575,0.63501203,51.300003,6.8250003,-36.318752,-0.6552022,2.3847675,9.489678,283.54843,-14.17927,-0.10811676,0.34335744,-1.096687,-0.33604717,29
2026-01-07 14:13:48.214,-0.40402153,2.9101522,7.98586,-0.8015879,0.0949389,0.059786204,50.60625,7.33125,-37.237503,-1.2690951,2.0410018,9.507582,292.82788,-14.17927,-0.10811676,0.86507356,0.8691504,-1.5217218,29
2026-01-07 14:13:48.315,0.10534488,2.2619221,10.25676,0.29240647,-0.29387116,-0.51024663,51.468754,9.225,-39.45,-1.2557657,1.6542163,9.584206,288.53354,-14.17927,-0.10811676,1.3611106,0.60770583,0.672554,29
2026-01-07 14:13:48.464,-3.9151182,3.2489316,10.234613,0.7090457,0.65099055,0.5082493,52.631252,6.7125,-38.643753,-1.2876105,2.6855993,9.343448,301.9434,-14.648657,0.064150736,-2.6275077,0.5633323,0.89116573,30
2026-01-07 14:13:48.566,-3.6260185,1.3000516,7.9313917,-0.14007814,1.2134336,1.6959841,52.593754,4.8562503,-37.143753,-1.8903275,3.1407797,9.095743,291.88187,-14.648657,0.064150736,-1.7356911,-1.8407282,-1.1643515,30
2026-01-07 14:13:48.676,0.074220255,2.3612814,8.611345,-1.1989198,-0.31943676,0.42196542,49.987503,4.0125003,-37.6875,-2.1963186,2.884096,9.112001,285.25537,-14.648657,0.064150736,2.2705388,-0.5228145,-0.5006561,30
2026-01-07 14:13:48.776,0.04309563,2.542642,8.173804,-0.36590755,-0.1724346,-0.51024663,49.275,5.5875,-40.818752,-1.5982714,1.9763947,9.471524,289.35294,-14.648657,0.064150736,1.641367,0.56624746,-1.29772,30
2026-01-07 14:13:48.877,-3.3488896,2.071583,9.955689,2.9353828,-0.87242585,-1.037537,49.65,3.825,-40.237503,-1.3474405,2.9110432,9.26718,292.5235,-15.127053,0.20953517,-2.001449,-0.83946013,0.688509,31
2026-01-07 14:13:48.978,-1.2372037,4.6279917,12.108675,0.27536273,0.6371425,0.12583065,50.343754,0.7875,-35.175003,-1.1325669,4.0541754,8.857276,288.23224,-15.127053,0.20953517,-0.10463679,0.5738163,3.251399,31
2026-01-07 14:13:49.078,-0.17597382,2.7952304,8.847773,0.20718782,-0.20545682,-0.34300503,50.86875,-0.99375004,-34.03125,-1.2118616,4.1715164,8.792055,280.6589,-15.127053,0.20953517,1.0358878,-1.376286,0.05571747,31
2026-01-07 14:13:49.178,-1.2563573,3.578733,5.783194,-0.45325664,0.31650737,-0.7659025,51.73125,-1.8375001,-33.506252,-1.2507334,4.073755,8.83236,295.8577,-15.127053,0.20953517,-0.0056239367,-0.49502182,-3.0491662,31
2026-01-07 14:13:49.279,-3.4237084,2.1996727,7.8930845,-1.766689,0.6595124,-0.17669553,55.8375,-0.54375005,-34.893753,-2.2524836,3.0078452,9.058122,289.06726,-15.127053,0.20953517,-1.1712248,-0.80817246,-1.1650372,31
2026-01-07 14:13:49.386,-2.0727801,2.5492263,13.13459,0.23488387,-0.14473854,0.68507797,57.487503,1.63125,-39.525,-1.9517558,1.643579,9.46888,281.86987,-15.618475,0.30175722,-0.12102437,0.9056473,3.6657104,32
2026-01-07 14:13:49.488,-2.6372132,2.3421278,11.157578,1.6539074,-0.80425096,-0.14154284,56.531254,-2.1000001,-37.125,-1.9840511,3.0182812,9.11723,279.49896,-15.618475,0.30175722,-0.6531621,-0.6761534,2.040348,32
2026-01-07 14:13:49.588,-2.40318,3.881001,7.3208704,0.13581721,0.116243556,0.055525273,56.381252,-5.15625,-32.381252,-1.4229637,3.8788192,8.893836,291.52527,-15.618475,0.30175722,-0.98021615,0.0021817684,-1.5729656,32
2026-01-07 14:13:49.689,-0.6572084,3.084929,6.8504095,-0.8196968,0.5178364,0.23128872,55.706253,-7.0312505,-32.68125,-1.421359,3.438004,9.073602,279.8299,-15.618475,0.30175722,0.76415056,-0.35307503,-2.2231922,32
2026-01-07 14:13:49.789,-0.076614454,2.669535,8.698733,-0.14966524,-0.6327484,-0.74672836,56.4,-7.2000003,-34.4625,-1.6367147,2.8893638,9.2273035,273.4406,-15.618475,0.30175722,1.5601002,-0.21982884,-0.5285702,32
2026-01-07 14:13:49.890,-2.8353333,3.5805287,9.845556,0.6856106,-0.6710968,-0.6881405,58.725002,-7.89375,-33.09375,-1.3295461,3.24095,9.1596365,280.07666,-15.618475,0.30175722,-1.5057873,0.33957863,0.68591976,32
2026-01-07 14:13:49.990,-0.46986207,3.4434607,11.205462,0.04420717,0.15352671,-0.219438,61.143753,-8.90625,-31.406252,-1.3133593,3.4557788,9.08312,271.3875,-16.116526,0.34585533,0.84349716,-0.012318134,2.122342,33
2026-01-07 14:13:50.090,0.87208796,3.3375173,7.6889787,0.2093183,0.0011983871,-0.07336792,62.925003,-9.525001,-30.150002,-1.3913791,3.5194001,9.047004,270.26917,-16.116526,0.34585533,2.263467,-0.18188286,-1.3580251,33
2026-01-07 14:13:50.191,-0.74519527,3.304597,6.9623384,-0.25725377,-0.4142425,-0.9192961,64.856255,-10.3125,-30.187502,-1.3118942,3.4001863,9.104287,275.99112,-16.116526,0.34585533,0.5666989,-0.0955894,-2.1419487,33
2026-01-07 14:13:50.291,-0.50876784,3.819949,9.217078,-0.16031757,-0.38761166,-0.8649692,69.637505,-8.493751,-31.312502,-1.2576587,3.0680933,9.229056,274.69934,-16.116526,0.34585533,0.7488909,0.7518556,-0.011978149,33
2026-01-07 14:13:50.391,-0.46327803,4.823119,7.626131,0.75058985,0.25365862,-0.86283875,74.4,-6.9750004,-32.381252,-1.257039,3.2689679,9.159917,280.77863,-16.611336,0.4177039,0.7937609,1.5541513,-1.5337858,34
2026-01-07 14:13:50.541,-1.283292,1.6585833,13.300987,-0.3904079,0.0789604,0.24726722,81.09375,-3.6937501,-31.875002,-1.4906923,3.0065384,9.214605,270.88654,-16.611336,0.4177039,0.2074002,-1.3479551,4.086382,34
2026-01-07 14:13:50.641,-2.7216089,1.9973627,7.536947,-0.290276,-0.31091487,0.42196542,81.4875,-3.4125001,-31.575,-1.4497857,2.9724655,9.232169,279.10553,-16.611336,0.4177039,-1.2718232,-0.9751028,-1.6952224,34
2026-01-07 14:13:50.742,-0.7308301,2.2403743,8.367735,-0.16244803,0.24087581,0.76284,80.2125,-4.70625,-32.831253,-1.2944226,2.637321,9.356249,274.21628,-16.611336,0.4177039,0.56359255,-0.39694667,-0.98851395,34
2026-01-07 14:13:50.842,-1.4389153,2.5995045,7.6404963,0.29453692,0.6371425,0.9609733,78.80625,-6.6937504,-32.1375,-1.4169407,2.895003,9.261837,276.61475,-16.611336,0.4177039,-0.021974564,-0.2954986,-1.6213408,34
2026-01-07 14:13:50.942,-0.7691373,4.707599,11.407174,-0.14007814,-0.30558872,0.589207,75.75,-9.69375,-27.487501,-1.5370418,3.2403777,9.127314,272.65463,-16.611336,0.4177039,0.76790446,1.4672215,2.2798605,34
2026-01-07 14:13:51.042,2.0949266,1.335366,11.1174755,0.7196981,-0.07017223,-0.052063264,73.425,-9.918751,-27.056252,-0.9781153,3.40232,9.145376,263.84064,-17.111277,0.4253559,3.073042,-2.066954,1.9720993,35
2026-01-07 14:13:51.143,1.2246342,3.1878796,7.8709383,-0.14753477,0.22596255,-0.3813534,73.912506,-8.681251,-26.7,-0.98135483,3.5707672,9.080582,268.15912,-17.111277,0.4253559,2.205989,-0.3828876,-1.2096434,35
2026-01-07 14:13:51.244,-1.6053122,2.3852234,5.527613,0.47043353,-0.41850343,-1.2218223,75.7125,-4.8375,-28.66875,-1.144375,3.7228808,9.000052,282.33755,-17.111277,0.4253559,-0.46093726,-1.3376575,-3.4724393,35
2026-01-07 14:13:51.346,-3.2124202,3.0484173,9.83957,0.2838846,-0.40039447,0.1918751,78.9,0.54375005,-28.85625,-0.96598685,3.8744059,8.95691,282.95142,-17.111277,0.4253559,-2.2464333,-0.82598853,0.8826599,35
2026-01-07 14:13:51.446,-1.9967642,3.1370027,11.127651,-0.7643047,-0.73714125,0.0885475,78.05625,3.0,-30.2625,-0.3870823,3.6546474,9.091981,281.49814,-17.606237,0.49616647,-1.6096818,-0.51764464,2.0356703,36
2026-01-07 14:13:51.546,1.2910733,2.4899697,9.788693,-0.71530396,-0.20545682,-0.4740287,75.412506,6.4875,-34.65,0.08583315,2.9963977,9.337271,278.8027,-17.606237,0.49616647,1.2052401,-0.506428,0.4514227,36
2026-01-07 14:13:51.646,0.074220255,1.4263457,6.3787518,0.20292689,-0.18415216,-0.87242585,75.037506,9.618751,-36.768753,-0.28081,2.8525667,9.3784,282.8541,-17.606237,0.49616647,0.35503024,-1.426221,-2.999648,36
2026-01-07 14:13:51.746,-1.8010383,3.5793316,11.417948,0.8603088,0.78307945,-0.72648895,74.4375,12.618751,-37.237503,-0.37913638,3.1173964,9.2902355,291.27032,-17.606237,0.49616647,-1.421902,0.46193528,2.1277122,36
2026-01-07 14:13:51.897,-0.16998832,2.0123265,8.453926,0.9870716,0.83740634,0.80012316,72.80625,15.243751,-38.5125,-0.61790293,3.339396,9.199838,288.44073,-18.088259,0.62903976,0.4479146,-1.3270695,-0.7459116,37
2026-01-07 14:13:51.998,-1.6166847,1.5310919,5.451597,-0.4745613,0.4177045,-0.6295527,69.43125,11.08125,-36.506252,-1.0776285,3.703396,9.016316,293.92908,-18.088259,0.62903976,-0.5390562,-2.1723042,-3.5647192,37
2026-01-07 14:13:52.098,-1.9255368,2.4654293,10.734404,-0.20505735,0.1950708,0.3410077,69.24375,12.4875,-35.456253,-1.5358639,3.22461,9.133094,290.03528,-18.088259,0.62903976,-0.38967288,-0.7591808,1.6013098,37
2026-01-07 14:13:52.199,0.26635495,2.6779146,9.646837,-0.39573407,-0.10852061,-0.01904104,67.425,11.493751,-36.75,-1.4341817,3.0411043,9.212231,286.60413,-18.560236,0.7940792,1.7005366,-0.3631897,0.43460655,38
2026-01-07 14:13:52.299,0.20530279,1.7160441,10.535685,0.045272402,-0.042476166,-0.3877448,65.90625,11.700001,-37.6875,-1.177769,2.7048678,9.352376,284.6343,-18.560236,0.7940792,1.3830718,-0.9888238,1.1833086,38
2026-01-07 14:13:52.400,0.87927055,2.5139117,10.572196,0.38188604,-0.11597724,-0.86923015,66.5625,12.731251,-37.36875,-1.3443921,2.8340662,9.2914505,285.84283,-18.560236,0.7940792,2.2236626,-0.32015443,1.2807455,38
2026-01-07 14:13:52.501,0.3824737,2.6402059,10.0269165,0.8102429,-0.27363172,-1.3400631,68.662506,12.243751,-36.75,-1.3940313,3.1677449,9.175645,286.33466,-19.043903,0.9208315,1.776505,-0.527539,0.8512716,39
2026-01-07 14:13:52.601,-0.23822308,2.3720553,11.689092,0.8464608,-1.4614997,-1.869484,73.5,14.775001,-37.85625,-1.2632132,3.639636,9.018188,287.05237,-19.043903,0.9208315,1.0249901,-1.2675807,2.6709032,39
2026-01-07 14:13:52.702,-0.08499416,2.0458453,8.260594,0.9306142,-0.9896015,-2.2156847,77.30625,19.237501,-41.15625,-0.9964106,4.381671,8.716565,290.509,-19.043903,0.9208315,0.9114165,-2.3358257,-0.45597076,39
2026-01-07 14:13:52.803,2.521693,2.308609,9.770139,0.30199355,-1.9120933,-2.6843872,78.1875,27.7875,-50.456253,-0.41229135,4.7299533,8.580673,290.844,-19.043903,0.9208315,2.9339843,-2.4213443,1.1894655,39
2026-01-07 14:13:52.904,0.25558102,2.4678235,10.915166,0.3062545,-2.299838,-3.0241966,77.90625,50.1375,-83.850006,-0.25909314,4.727034,8.588271,309.99274,-19.043903,0.9208315,0.5146742,-2.2592106,2.3268948,39
2026-01-07 14:13:53.004,0.44711718,2.6426,9.024344,0.88693964,-2.4212747,-3.2968962,74.193756,59.062504,-139.875,0.14549722,5.30253,8.248176,319.50177,-19.422277,1.2476848,0.30161995,-2.6599298,0.7761688,40
2026-01-07 14:13:53.105,-2.8694508,1.5825673,8.884284,-0.19866596,-1.7011771,-3.3203313,37.10625,35.475002,-89.756256,-0.047328107,5.5725336,8.069387,351.41406,-19.422277,1.2476848,-2.8221228,-3.9899664,0.8148966,40
2026-01-07 14:13:53.207,-3.1836896,2.094328,9.153033,-0.4287563,-1.3070409,-2.4042308,36.91875,49.612503,-67.51875,-0.44762298,5.1796546,8.315119,348.87546,-19.422277,1.2476848,-2.7360666,-3.0853267,0.83791447,40
2026-01-07 14:13:53.308,-4.3161473,2.597709,8.670602,-0.5299534,-0.42596006,-1.4742825,27.4125,52.068752,-66.20625,-0.8265557,4.4750714,8.686825,4.125763,-19.422277,1.2476848,-3.4895916,-1.8773625,-0.016222954,40
2026-01-07 14:13:53.408,-2.321777,3.2291796,10.667366,0.16031757,-0.28321883,-0.7062495,22.66875,51.318752,-64.125,-1.0716858,3.9979692,8.890339,352.90088,-19.467613,1.7456253,-1.2500913,-0.7687895,1.7770271,41
2026-01-07 14:13:53.508,-2.5115175,4.300585,8.8884735,0.67389303,-0.59546524,-0.6061176,21.018751,47.86875,-62.456253,-1.192443,4.432503,8.666105,357.39035,-19.467613,1.7456253,-1.3190745,-0.13191843,0.22236824,41
2026-01-07 14:13:53.608,-1.3994108,3.4045548,8.497621,0.20718782,-0.27682742,-0.14580376,18.6375,44.643753,-63.2625,-1.0478417,4.609479,8.5921545,352.95016,-19.467613,1.7456253,-0.35156918,-1.2049241,-0.09453392,41
2026-01-07 14:13:53.709,-0.6147113,4.31914,8.36175,0.532217,0.18654893,0.01611165,16.59375,42.99375,-63.225002,-0.89726937,4.8479733,8.477173,350.01276,-19.467613,1.7456253,0.28255808,-0.5288334,-0.1154232,41
2026-01-07 14:13:53.809,-0.46746787,5.00448,9.42238,-0.02290251,-0.19480449,0.055525273,17.34375,41.268753,-64.200005,-0.8833468,5.076262,8.343959,348.06598,-19.467613,1.7456253,0.41587892,-0.07178211,1.0784216,41
2026-01-07 14:13:53.910,0.08499416,4.8099513,6.793547,0.08255556,-0.19586973,-0.13302097,15.937501,39.956253,-63.825,-0.6600319,5.4192977,8.14653,346.43756,-19.467613,1.7456253,0.74502605,-0.6093464,-1.352983,41
2026-01-07 14:13:54.010,0.12150574,4.324527,9.738416,-0.10492545,-0.111716315,0.3207683,15.712501,41.1375,-63.73125,-0.39307126,4.960056,8.4506645,345.4024,-19.467613,1.7456253,0.51457703,-0.63552904,1.2877512,41
2026-01-07 14:13:54.160,0.12509704,5.063138,8.564059,-0.026098209,0.14287437,0.12583065,14.56875,41.381252,-62.662502,-0.22706601,5.202916,8.309543,347.06277,-19.59505,2.2291124,0.35216305,-0.13977814,0.2545166,42
2026-01-07 14:13:54.261,-0.55246204,5.130774,8.891466,0.16564374,-0.19480449,0.36444286,14.981251,41.60625,-63.656254,-0.07726124,5.265041,8.273075,350.8372,-19.59505,2.2291124,-0.4752008,-0.13426685,0.61839104,42
2026-01-07 14:13:54.362,0.20111294,4.8320975,9.753978,0.13581721,0.1790923,0.10452599,15.58125,42.018753,-63.000004,-0.16382612,5.0539727,8.402434,345.54443,-19.708128,2.7161582,0.36493906,-0.22187519,1.3515434,43
2026-01-07 14:13:54.461,-0.30466217,5.583877,6.95336,-0.15925233,0.13435252,0.006524552,16.087502,41.60625,-64.387505,-0.19461174,5.3030214,8.246846,349.72992,-19.708128,2.7161582,-0.110050425,0.28085566,-1.2934861,43
2026-01-07 14:13:54.562,-0.12270284,4.7722425,9.093178,-0.12516488,0.019307349,-0.052063264,16.125,42.45,-63.45,-0.215784,5.0613217,8.396835,347.19464,-19.708128,2.7161582,0.09308116,-0.2890792,0.69634247,43
2026-01-07 14:13:54.662,0.053869538,5.0134583,8.407239,0.070838,0.061916668,0.099199824,16.1625,43.612503,-63.693752,-0.21866308,5.0956745,8.375958,346.687,-19.708128,2.7161582,0.2725326,-0.08221626,0.031280518,43
2026-01-07 14:13:54.764,-0.26994625,5.0679264,7.9272017,0.042076703,0.013981183,-0.035019536,15.806251,41.775,-62.775,-0.20045175,5.1790504,8.325121,348.84427,-19.708128,2.7161582,-0.0694945,-0.11112404,-0.39791918,43
2026-01-07 14:13:54.864,-0.32800564,5.084686,8.441956,0.028228676,0.019307349,0.02676398,16.181252,41.737503,-62.7,-0.23178083,5.1611977,8.335389,348.6447,-19.708128,2.7161582,-0.096224815,-0.07651186,0.10656643,43
2026-01-07 14:13:55.016,-0.12689269,5.2786164,7.9433627,0.16031757,0.057655737,0.02356828,15.918751,42.54375,-62.4,-0.25975108,5.2494264,8.279277,347.98526,-19.708128,2.7161582,0.1328584,0.029190063,-0.33591413,43
2026-01-07 14:13:55.118,0.020350715,5.207389,8.226477,-0.0058587817,-0.02969337,-0.013714875,15.918751,41.456253,-63.35625,-0.25284114,5.285904,8.256251,346.9025,-19.708128,2.7161582,0.27319187,-0.07851505,-0.029774666,43
2026-01-07 14:13:55.218,-0.19931729,5.1810527,8.446145,0.05059857,-0.012649642,-0.023301972,16.125,41.8125,-63.093754,-0.24432588,5.2808743,8.259726,347.99652,-19.708128,2.7161582,0.045008585,-0.09982157,0.18641949,43
2026-01-07 14:13:55.319,-0.11911154,5.254674,8.247426,-0.038881004,0.0054593193,-0.037150003,15.750001,41.025,-63.375004,-0.24882166,5.3298173,8.228093,347.8282,-19.708128,2.7161582,0.12971012,-0.07514334,0.019332886,43
2026-01-07 14:13:55.470,-0.17776948,5.2558713,8.447342,0.12729535,0.0118507175,-0.015845342,16.40625,41.5125,-63.487503,-0.25962213,5.233202,8.289546,347.67496,-19.708128,2.7161582,0.081852645,0.022669315,0.1577959,43
2026-01-07 14:13:55.619,-0.24779987,5.242703,8.054693,0.013315413,-0.030758604,0.009720251,15.806251,41.268753,-64.068756,-0.29942483,5.3280053,8.227581,348.79056,-19.81399,3.2048228,0.051624954,-0.08530235,-0.1728878,44
2026-01-07 14:13:55.720,-0.24001873,5.263054,8.359954,0.07509893,0.0118507175,0.024633514,16.237501,40.78125,-64.200005,-0.29430437,5.301497,8.244871,348.21167,-19.81399,3.2048228,0.054285645,-0.03844309,0.11508274,44
2026-01-07 14:13:55.871,-0.25737667,5.4091,7.9391727,-0.0612509,-0.020106273,0.03741631,16.0125,40.875,-63.562504,-0.28605825,5.3486214,8.214671,348.70776,-19.81399,3.2048228,0.028681576,0.060478687,-0.2754984,44
2026-01-07 14:13:55.971,-0.27473465,5.2343235,8.082825,0.0580552,0.03422061,0.01291595,16.21875,41.0625,-63.131252,-0.27190056,5.3066783,8.242307,348.48755,-19.81399,3.2048228,-0.0028340816,-0.07235479,-0.159482,44
2026-01-07 14:13:56.122,-0.27234045,5.28939,8.054693,0.0069240145,0.017176883,0.02676398,16.63125,41.268753,-63.45,-0.29767135,5.328195,8.227522,348.25012,-19.81399,3.2048228,0.025330901,-0.038805008,-0.17282867,44
2026-01-07 14:13:56.222,-0.22685061,5.28939,8.226477,0.014380646,0.036351077,0.01611165,16.2,40.93125,-63.54375,-0.29040462,5.3181343,8.234287,348.18115,-19.81399,3.2048228,0.063554004,-0.02874422,-0.0078105927,44
2026-01-07 14:13:56.322,-0.32202014,5.241506,8.280347,-0.011184947,0.059786204,0.047003407,16.425001,41.456253,-63.6375,-0.31941763,5.3009386,8.244295,348.6379,-19.81399,3.2048228,-0.0026025176,-0.059432507,0.03605175,44
2026-01-07 14:13:56.422,-0.29269117,5.213374,8.142081,0.0015978495,0.03422061,0.017176883,16.48125,41.550003,-64.425,-0.32897022,5.304351,8.241725,348.57025,-19.81399,3.2048228,0.036279052,-0.090976715,-0.09964371,44
2026-01-07 14:13:56.527,-0.3752911,5.281609,8.3868885,0.009054481,-0.014780108,-0.010519176,16.462502,41.71875,-63.825,-0.3324062,5.289255,8.251283,348.958,-19.81399,3.2048228,-0.042884916,-0.007646084,0.13560581,44
2026-01-07 14:13:56.628,-0.3645172,5.2905874,8.276156,0.056989968,-0.016910573,1.3315413E-4,16.462502,41.287502,-64.05,-0.33388022,5.288753,8.251545,348.92545,-19.81399,3.2048228,-0.030636996,0.0018343925,0.024611473,44
2026-01-07 14:13:56.729,-0.23343466,5.2026005,8.227076,-0.010119714,-0.02969337,0.0022636203,16.35,41.23125,-63.843754,-0.3265487,5.3107605,8.237692,348.13956,-19.81399,3.2048228,0.09311403,-0.10816002,-0.0106163025,44
2026-01-07 14:13:56.879,-0.19931729,5.28939,8.19236,-0.037815772,-0.021171506,-0.052063264,15.843751,41.175003,-64.068756,-0.30568546,5.322935,8.230632,348.3947,-19.81399,3.2048228,0.10636817,-0.033545017,-0.038271904,44
2026-01-07 14:13:56.980,0.61171854,4.3598413,10.070012,0.07616416,-0.21930484,-0.041410934,16.1625,42.300003,-64.275,-0.30900598,5.101511,8.369556,342.3169,-19.81399,3.2048228,0.9207245,-0.74166965,1.7004557,44
2026-01-07 14:13:57.079,-0.23223756,5.3163247,7.7081323,0.13688244,0.032090146,0.0118507175,16.368752,41.9625,-63.693752,-0.3117613,5.313386,8.236572,348.49573,-19.81399,3.2048228,0.07952373,0.0029387474,-0.52844,44
2026-01-07 14:13:57.231,-0.28670564,5.265448,8.476671,-0.08788172,1.3315413E-4,-0.00838871,15.8625,41.550003,-64.51875,-0.3109188,5.2977676,8.246657,348.88516,-19.81399,3.2048228,0.024213165,-0.032319546,0.23001385,44
2026-01-07 14:13:57.382,-0.30107087,5.1786585,8.079233,-0.020772044,-0.058454663,-0.013714875,15.337501,41.550003,-63.54375,-0.27619419,5.3045325,8.243546,349.44348,-19.81399,3.2048228,-0.024876684,-0.12587404,-0.16431236,44
2026-01-07 14:13:57.531,-0.1352724,5.269039,8.411429,0.03675054,0.059786204,0.057655737,15.562501,41.8125,-63.281254,-0.2269517,5.2643275,8.270776,348.12396,-19.81399,3.2048228,0.091679305,0.004711628,0.14065361,44
2026-01-07 14:13:57.632,-0.3345897,5.2205567,8.144476,-0.0047935485,0.027829213,0.013981183,15.093751,41.662502,-63.24375,-0.21629824,5.297587,8.249799,349.8157,-19.81399,3.2048228,-0.11829145,-0.07703018,-0.10532284,44
2026-01-07 14:13:57.733,-0.33518824,5.229535,8.411429,0.07616416,0.06830807,0.06511237,15.562501,41.475002,-63.956253,-0.22692779,5.2786894,8.261618,349.36945,-19.81399,3.2048228,-0.10826045,-0.04915428,0.14981174,44
2026-01-07 14:13:57.835,-0.13587095,5.2486887,8.24204,-0.03994624,0.039546777,0.053394806,15.7875,41.7,-64.481255,-0.21833089,5.3085504,8.242695,348.1131,-19.81399,3.2048228,0.08245994,-0.05986166,-6.5517426E-4,44
2026-01-07 14:13:57.986,-0.2621651,5.1840453,8.285135,0.030359142,0.059786204,0.07363423,15.95625,42.0,-63.562504,-0.22797528,5.30252,8.246315,348.67007,-19.81399,3.2048228,-0.03418982,-0.11847448,0.038820267,44
2026-01-07 14:13:58.087,-0.1945289,5.358822,8.106169,-0.0058587817,0.055525273,0.07363423,15.4125,41.756252,-63.843754,-0.23579629,5.321102,8.234116,348.89612,-19.81399,3.2048228,0.041267395,0.037719727,-0.12794685,44
2026-01-07 14:13:58.188,-0.13108255,5.2444987,8.190564,-0.052729033,0.028894445,0.01291595,16.706251,42.768753,-63.075,-0.22558384,5.310443,8.241281,347.392,-19.81399,3.2048228,0.09450129,-0.065944195,-0.0507164,44
2026-01-07 14:13:58.338,-0.3441665,5.1822495,7.984064,-0.09746882,-0.004127778,0.035285845,17.1,42.5625,-62.68125,-0.22616483,5.2529893,8.278003,348.4173,-19.81399,3.2048228,-0.118001655,-0.070739746,-0.29393864,44
2026-01-07 14:13:58.488,-0.3669114,5.101445,8.255806,-0.19866596,0.092808425,0.0885475,17.456251,44.362503,-63.05625,-0.22065234,5.089418,8.379708,348.3887,-19.81399,3.2048228,-0.14625907,0.012027264,-0.12390232,44
2026-01-07 14:13:58.589,-0.39145198,4.8015714,8.377911,-0.31371114,0.0949389,0.16204858,18.525002,44.90625,-62.831253,-0.2849672,4.9081993,8.4852085,347.55872,-19.81399,3.2048228,-0.10648477,-0.10662794,-0.1072979,44
2026-01-07 14:13:58.741,-0.45789108,4.5681367,8.763377,-0.13475198,0.19080986,0.14074391,19.29375,48.206253,-63.54375,-0.3577216,4.611643,8.647264,347.59546,-19.81399,3.2048228,-0.10016948,-0.043506145,0.11611366,44
2026-01-07 14:13:58.893,-0.3633201,4.5112743,8.483255,0.012250179,0.09174319,0.10452599,21.150002,49.65,-63.54375,-0.4042986,4.508737,8.699323,346.03848,-19.81399,3.2048228,0.04097849,0.0025372505,-0.21606731,44
2026-01-07 14:13:59.094,-0.5153519,4.435259,8.741829,-0.009054481,0.09706936,0.11730879,23.325,49.425003,-63.937504,-0.47575417,4.462081,8.719741,345.1354,-19.81399,3.2048228,-0.03959772,-0.02682209,0.02208805,44
2026-01-07 14:13:59.195,-0.5823896,4.4125137,8.809465,-0.09001219,0.070438534,0.045938175,24.075,49.406254,-65.8125,-0.49892965,4.4594903,8.719771,345.15656,-19.81399,3.2048228,-0.08345994,-0.046976566,0.08969402,44
2026-01-07 14:13:59.296,-1.2737153,4.1784806,8.868722,0.031424373,0.16204858,0.13861345,23.8125,49.143753,-66.84375,-0.6091628,4.411714,8.737053,349.22662,-19.81399,3.2048228,-0.66455245,-0.23323345,0.13166904,44
2026-01-07 14:13:59.397,-1.8620903,4.155137,9.214086,0.12623012,0.03741631,0.32609445,24.45,48.91875,-66.825005,-0.79886055,4.44756,8.70353,351.65994,-19.81399,3.2048228,-1.0632298,-0.29242277,0.51055527,44
2026-01-07 14:13:59.497,-2.2780828,4.0743327,8.714894,0.49386865,0.8693633,1.3018479,25.06875,48.2625,-67.162506,-0.9178175,4.667662,8.575601,354.34225,-19.81399,3.2048228,-1.3602654,-0.5933294,0.13929367,44
2026-01-07 14:13:59.599,-1.5406688,4.699219,8.255207,-0.0015978495,1.1420629,1.8376601,31.275002,47.081253,-70.21875,-1.0203234,5.096149,8.316165,347.03693,-19.81399,3.2048228,-0.52034545,-0.39692974,-0.06095791,44
2026-01-07 14:13:59.699,-0.54408234,2.92751,8.01878,-0.21038352,1.0547138,1.7513763,40.518753,47.737503,-71.68125,-0.988144,5.1745496,8.271518,333.1497,-19.81399,3.2048228,0.44406164,-2.2470396,-0.252738,44
2026-01-07 14:13:59.799,0.724246,3.7116113,9.015367,-0.6428681,1.1079755,1.9995755,49.29375,49.612503,-70.9875,-0.8556766,4.9345036,8.431422,322.43042,-19.81399,3.2048228,1.5799227,-1.2228923,0.5839443,44
2026-01-07 14:13:59.900,0.23223756,4.1796775,9.974843,-0.58214986,0.8959941,1.1079755,57.750004,51.112503,-68.68125,-0.9963563,4.5255046,8.64277,320.95532,-19.81399,3.2048228,1.2285938,-0.3458271,1.3320732,44
2026-01-07 14:14:00.050,-0.24301147,3.9564183,9.657013,-0.7951965,0.99293035,0.9588429,67.106255,53.5875,-61.687504,-1.270521,3.561995,9.048113,318.319,-19.81399,3.2048228,1.0275096,0.39442325,0.60890007,44
2026-01-07 14:14:00.150,-2.5953147,3.4991257,7.9224133,-0.12090395,0.28348514,0.8246235,71.512505,52.912502,-57.581253,-1.8469316,3.4401128,8.995824,327.51538,-19.81399,3.2048228,-0.74838316,0.05901289,-1.0734105,44
2026-01-07 14:14:00.250,0.24061728,2.7353754,8.7532015,-1.0987879,0.3271597,1.3391311,75.412506,51.825,-55.8375,-1.649582,3.1776843,9.129709,310.41293,-19.81399,3.2048228,1.8901993,-0.4423089,-0.37650776,44
2026-01-07 14:14:00.352,-1.5107412,2.3624785,8.996213,-0.8623061,0.61370736,0.99079984,78.3,50.737503,-52.55625,-1.8257415,2.4434924,9.320214,313.65118,-19.81399,3.2048228,0.3150003,-0.08101392,-0.3240013,44
2026-01-07 14:14:00.453,-2.3505075,1.110311,9.625888,-0.54699713,0.83421063,1.7290064,82.36875,49.500004,-47.287502,-2.3166432,1.9273063,9.332151,309.3852,-19.81399,3.2048228,-0.03386426,-0.81699526,0.29373646,44
2026-01-07 14:14:00.553,-0.84934306,1.0642227,10.578181,-0.0612509,0.41983497,1.0717576,85.78125,44.34375,-43.068752,-2.4975293,1.9106658,9.2888155,300.88965,-19.81399,3.2048228,1.6481862,-0.84644306,1.2893658,44
2026-01-07 14:14:00.653,-0.480636,1.5047557,9.720459,0.21144876,0.21957116,0.30585504,86.5875,39.768753,-41.175003,-2.5131466,2.0921476,9.2453985,298.7025,-19.81399,3.2048228,2.0325108,-0.58739185,0.47506046,44
2026-01-07 14:14:00.753,0.78410107,1.4586674,9.911995,0.35312474,0.059786204,-0.36537492,87.61875,37.706253,-40.3875,-2.5505083,2.328509,9.178417,294.96503,-19.81399,3.2048228,3.3346093,-0.8698417,0.7335777,44
2026-01-07 14:14:00.858,1.0043676,0.65660983,10.333375,1.0371375,-0.7584459,-2.094248,86.7375,38.175003,-41.175003,-2.429048,2.6403015,9.126823,293.9712,-19.81399,3.2048228,3.4334157,-1.9836917,1.2065516,44
2026-01-07 14:14:00.958,0.04189853,1.1587936,10.155605,0.833678,-1.5147613,-2.8367155,82.0875,45.09375,-46.3875,-1.9852375,2.9550078,9.137677,301.29874,-19.81399,3.2048228,2.027136,-1.7962142,1.0179281,44
2026-01-07 14:14:01.059,-1.5999253,0.3357868,9.78989,0.78148156,-1.4828044,-3.0199356,73.36875,53.175003,-55.256252,-1.425274,3.1328516,9.182822,311.0993,-19.81399,3.2048228,-0.17465127,-2.7970648,0.60706806,44
2026-01-07 14:14:01.210,-1.6537948,2.4115596,9.735423,-0.18801363,-0.86283875,-2.1187484,55.612503,58.912502,-61.706253,-1.1188086,3.189736,9.205664,328.93982,-19.81399,3.2048228,-0.53498614,-0.7781763,0.5297594,44
2026-01-07 14:14:01.310,-4.0575733,1.2635399,9.354146,0.34140718,-0.8947957,-2.1198137,46.725002,60.600002,-61.85625,-1.1159513,2.9568722,9.283423,345.2674,-19.81399,3.2048228,-2.941622,-1.6933323,0.07072258,44
2026-01-07 14:14:01.410,-1.6519991,3.3800142,9.049484,-0.21997061,-0.11704248,-0.2290251,38.625,59.23125,-60.99375,-0.9555609,3.0111198,9.283881,341.0321,-19.81399,3.2048228,-0.6964382,0.36889434,-0.23439693,44
2026-01-07 14:14:01.511,-2.885013,3.3375173,8.658031,0.119838715,0.6254249,-0.40798426,36.825,60.318752,-60.15,-1.2542996,2.810542,9.311175,348.77814,-19.81399,3.2048228,-1.6307135,0.52697515,-0.6531439,44
2026-01-07 14:14:01.611,-1.0145429,2.1206641,8.9363575,-0.30412403,0.30692026,0.13115682,38.287502,59.643753,-60.881252,-1.6271605,2.9667425,9.204411,336.8536,-19.81399,3.2048228,0.6126176,-0.8460784,-0.26805305,44
2026-01-07 14:14:01.710,-2.0003555,2.6150668,9.388862,-0.20399213,0.6147726,0.15991811,40.068752,61.612503,-59.643753,-2.1867793,2.5944262,9.200943,340.82938,-19.81399,3.2048228,0.18642378,0.020640612,0.18791866,44
2026-01-07 14:14:01.810,-1.9949685,3.0466216,9.240421,0.1645785,0.045938175,0.038481545,43.125,61.55625,-61.050003,-2.4748845,2.6971765,9.097833,339.83063,-19.81399,3.2048228,0.47991598,0.3494451,0.14258862,44
2026-01-07 14:14:01.910,-3.2531216,2.4797945,8.950125,-0.20825306,0.14074391,-0.017975807,43.143753,61.725002,-61.29375,-2.5831428,2.5545197,9.108907,345.88144,-19.81399,3.2048228,-0.66997886,-0.07472515,-0.158782,44
2026-01-07 14:14:02.010,-2.7329812,2.5725696,8.237849,-0.16670896,0.07469947,0.54553246,43.800003,62.812504,-60.05625,-2.3839912,2.5625365,9.160807,344.24814,-19.81399,3.2048228,-0.34898996,0.010033131,-0.9229574,44
2026-01-07 14:14:02.112,-2.5887306,2.4025815,9.922171,-0.85058856,-0.3247629,0.5135755,45.862503,64.4625,-59.812504,-2.3567562,2.1852093,9.265039,339.57208,-19.81399,3.2048228,-0.23197436,0.21737218,0.6571312,44
2026-01-07 14:14:02.211,-0.8858546,1.3760674,9.622296,-0.44686526,-0.20545682,0.4816185,46.575,67.96875,-56.943752,-1.7794533,1.6717352,9.497853,331.52582,-19.81399,3.2048228,0.8935987,-0.29566777,0.124443054,44
2026-01-07 14:14:02.311,-1.3988123,1.2258313,9.266159,0.1422086,-0.22356579,-0.061650362,46.78125,68.5875,-56.175003,-1.7224871,1.6114111,9.518759,333.5508,-19.81399,3.2048228,0.3236748,-0.38557982,-0.25259972,44
2026-01-07 14:14:02.411,-2.2517467,1.4574703,8.936956,0.018641578,0.08109087,-0.06058513,45.525,68.64375,-56.756252,-1.5702177,1.564162,9.552917,338.65823,-19.81399,3.2048228,-0.6815289,-0.10669172,-0.6159601,44
2026-01-07 14:14:02.511,-2.055422,1.1719618,8.905233,-0.36164662,-0.014780108,0.16737475,45.862503,68.90625,-56.437504,-1.6672726,1.5796385,9.533904,337.36877,-19.81399,3.2048228,-0.3881495,-0.4076767,-0.6286707,44
2026-01-07 14:14:02.611,-2.2439656,0.66618663,9.7162695,-0.23594911,-0.0019973118,0.5551196,47.0625,70.425,-55.55625,-1.6807321,1.3086296,9.572514,335.90546,-19.81399,3.2048228,-0.5632335,-0.642443,0.14375591,44
2026-01-07 14:14:02.762,-1.0582372,0.96905315,9.648633,-0.14753477,0.0011983871,0.5881418,50.100002,70.856255,-54.825,-1.6646024,1.2256491,9.586306,330.18097,-19.81399,3.2048228,0.6063652,-0.25659597,0.062327385,44
2026-01-07 14:14:02.862,-0.712275,0.96187055,9.912594,-0.037815772,0.059786204,0.5540543,53.04375,70.856255,-54.187504,-1.6134784,1.2013462,9.598116,327.21024,-19.81399,3.2048228,0.9012034,-0.23947561,0.31447792,44
2026-01-07 14:14:02.962,-0.44951138,1.401805,9.942521,0.15712187,0.15352671,0.33994249,54.843754,69.5625,-54.43125,-1.6304876,1.2877373,9.58403,325.73468,-19.81399,3.2048228,1.1809762,0.11406779,0.35849094,44
2026-01-07 14:14:03.061,0.20590134,1.857302,9.81503,0.08788172,0.099199824,-0.033954304,55.65,69.1125,-55.0125,-1.6256478,1.4444233,9.562494,323.91202,-19.81399,3.2048228,1.8315492,0.41287863,0.25253582,44
2026-01-07 14:14:03.162,1.9997569,3.882198,12.639589,0.3904079,0.46883568,-0.54433405,55.350002,68.418755,-54.7125,-1.7878615,1.578546,9.512209,321.20703,-19.81399,3.2048228,3.7876184,2.303652,3.1273804,44
2026-01-07 14:14:03.262,0.5542577,1.6136919,13.767259,1.368425,-0.7158366,-1.7086338,55.29375,66.9,-56.756252,-2.2547576,2.167852,9.294454,321.67532,-19.81399,3.2048228,2.8090153,-0.55416,4.472805,44
2026-01-07 14:14:03.363,-2.1308396,0.0676362,8.140884,0.8890701,-1.320889,-2.1656187,45.506252,60.862503,-63.037502,-1.4448618,3.163756,9.169155,335.45383,-19.81399,3.2048228,-0.6859778,-3.0961196,-1.0282707,44
2026-01-07 14:14:03.463,-3.3171666,0.32621,7.680599,1.3439246,-0.98107964,-1.7832,35.625,54.187504,-65.55,-1.3350462,3.8120644,8.93623,353.2858,-19.81399,3.2048228,-1.9821204,-3.4858544,-1.2556305,44
2026-01-07 14:14:03.563,-4.538808,2.1164744,3.9426517,1.2139661,-1.019428,-0.5837477,28.987501,46.068752,-66.693756,-1.2735571,4.8782415,8.411374,25.65747,-19.81399,3.2048228,-3.2652507,-2.7617671,-4.4687223,44
2026-01-07 14:14:03.663,-1.2737153,6.51163,9.587581,-1.8061026,-0.31837153,0.14393961,24.525002,43.2,-65.512505,-0.75031865,4.690859,8.579234,348.0191,-19.81399,3.2048228,-0.5233966,1.8207712,1.0083466,44
2026-01-07 14:14:03.764,1.5245079,4.823119,12.650363,0.17310037,-0.50705093,-0.7520545,21.0,48.6375,-62.23125,-0.20619284,4.0190825,8.942865,336.9418,-19.81399,3.2048228,1.7307007,0.8040366,3.7074976,44
2026-01-07 14:14:03.864,-1.596334,2.9640217,6.6241574,0.8858744,0.6690995,-0.38881007,19.3125,45.768753,-61.631252,-0.55893,4.5430183,8.672887,356.33395,-19.81399,3.2048228,-1.0374041,-1.5789967,-2.0487294,44
2026-01-07 14:14:03.964,-4.26527,4.3317094,6.302736,-0.16670896,0.29307222,0.41237834,20.71875,42.46875,-63.61875,-1.2035861,4.838631,8.44449,15.065613,-19.81399,3.2048228,-3.0616841,-0.50692177,-2.1417546,44
2026-01-07 14:14:04.114,-1.2755109,3.7594953,9.648633,-0.15925233,0.31224644,1.0344744,24.300001,47.1375,-63.825,-1.0816351,4.3197703,8.737279,346.9635,-19.81399,3.2048228,-0.19387579,-0.5602751,0.91135406,44
2026-01-07 14:14:04.215,-0.6985083,4.483143,9.197925,-0.180557,0.9077117,1.2805432,27.35625,49.987503,-63.99375,-1.0750061,4.282805,8.756274,343.0838,-19.81399,3.2048228,0.3764978,0.20033789,0.4416504,44
2026-01-07 14:14:04.316,-0.38187516,5.0822916,9.75697,-0.05059857,1.06004,0.9002551,34.518753,51.937504,-65.043755,-1.6367335,4.3253355,8.647715,337.3867,-19.81399,3.2048228,1.2548584,0.7569561,1.1092558,44
2026-01-07 14:14:04.416,-1.9075803,4.9374423,8.066066,-0.17203513,0.33887726,0.5103798,41.04375,52.987503,-65.793755,-1.9172229,4.5191345,8.489527,343.3878,-19.81399,3.2048228,0.009642601,0.41830778,-0.42346096,44
2026-01-07 14:14:04.566,-2.219425,3.8905778,8.462905,-0.24021004,0.23448442,0.45498765,45.3375,53.850002,-65.756256,-2.093887,4.3250823,8.548665,341.17792,-19.81399,3.2048228,-0.12553787,-0.4345045,-0.08576012,44
2026-01-07 14:14:04.665,-1.6089035,3.840898,9.113529,-0.24447098,0.21211453,0.57429373,47.0625,54.881252,-65.662506,-2.0429282,4.179134,8.633173,336.04272,-19.81399,3.2048228,0.4340247,-0.33823586,0.48035622,44
2026-01-07 14:14:04.765,-1.3263878,4.012682,9.087193,-0.11664302,0.29946363,0.40918264,50.025,55.162502,-65.4375,-2.044757,4.1195316,8.661341,333.22403,-19.81399,3.2048228,0.7183691,-0.10684967,0.42585182,44
2026-01-07 14:14:04.865,-1.5705963,4.1341877,8.740632,-0.03675054,0.070438534,0.26537618,51.937504,55.8375,-64.6125,-2.0322328,4.1321416,8.658281,333.98804,-19.81399,3.2048228,0.46163642,0.0020461082,0.08235073,44
2026-01-07 14:14:04.965,-1.821389,4.1359835,8.456919,-0.027163442,0.04167724,0.10346076,52.818752,55.0875,-63.9,-1.9740372,4.1664867,8.655285,334.88196,-19.81399,3.2048228,0.15264821,-0.030503273,-0.19836617,44
2026-01-07 14:14:05.065,-2.224812,4.0623617,8.728661,-0.08149032,-0.00838871,0.071503766,53.343754,55.537502,-64.55625,-1.9672153,4.133808,8.67249,336.38483,-19.81399,3.2048228,-0.25759673,-0.07144642,0.056170464,44
2026-01-07 14:14:05.216,-2.0530279,4.2155905,8.640674,-0.027163442,0.042742476,0.18335323,53.4,54.825,-63.750004,-1.9523286,4.118613,8.683078,335.43448,-19.81399,3.2048228,-0.100699306,0.09697771,-0.042404175,44
2026-01-07 14:14:05.317,-1.9303252,4.0695443,8.696339,-0.027163442,0.08641703,0.25898477,53.9625,54.468754,-64.2375,-1.9363246,4.129273,8.681598,334.27863,-19.81399,3.2048228,0.005999446,-0.059728622,0.014740944,44
2026-01-07 14:14:05.417,-1.5717934,4.344279,8.626308,-0.070838,0.06511237,0.26218048,54.975002,54.2625,-63.675003,-1.8743823,4.1705723,8.675449,332.16382,-19.81399,3.2048228,0.30258882,0.17370653,-0.04914093,44
2026-01-07 14:14:05.518,-1.4670471,4.0282445,8.877101,0.009054481,0.19933173,0.23022349,55.66875,54.468754,-63.3375,-1.7868748,4.152225,8.702672,330.54153,-19.81399,3.2048228,0.31982768,-0.12398052,0.17442894,44
2026-01-07 14:14:05.618,-1.4000094,4.19943,8.561067,-0.056989968,0.0949389,0.18122277,57.000004,53.625004,-63.05625,-1.8462355,4.193952,8.670212,329.8701,-19.81399,3.2048228,0.44622612,0.0054779053,-0.109145164,44
2026-01-07 14:14:05.720,-1.3982137,4.188656,8.654441,-0.0612509,0.036351077,0.13435252,58.031254,53.68125,-62.86875,-1.7646096,4.184689,8.691657,329.1687,-19.81399,3.2048228,0.36639583,0.0039668083,-0.037216187,44
2026-01-07 14:14:05.820,-1.4191631,4.3287168,8.68796,-0.029293908,-0.081889786,0.072569,58.050003,52.74375,-63.581253,-1.6533318,4.1828685,8.714385,329.2759,-19.81399,3.2048228,0.23416865,0.14584827,-0.026425362,44
2026-01-07 14:14:05.920,-1.525705,4.1701007,8.6095495,0.049533337,0.004394086,0.022503048,58.593754,53.04375,-62.362503,-1.5589782,4.194789,8.726036,329.2585,-19.81399,3.2048228,0.03327322,-0.024688244,-0.11648655,44
2026-01-07 14:14:06.021,-1.4371196,4.1611223,8.353969,-0.020772044,0.033155378,0.056590505,57.787502,53.41875,-62.831253,-1.567064,4.2190266,8.7128935,329.80225,-19.81399,3.2048228,0.12994444,-0.057904243,-0.35892487,44
2026-01-07 14:14:06.121,-1.3120226,4.247314,8.506598,-0.07616416,0.047003407,-0.041410934,58.162502,53.268753,-62.175003,-1.5310521,4.183286,8.736497,328.67737,-19.81399,3.2048228,0.21902955,0.064027786,-0.22989845,44
2026-01-07 14:14:06.222,-1.5292963,3.863643,9.119514,-0.07616416,-0.041410934,-0.013714875,58.0875,54.093754,-62.550003,-1.5293835,4.0680094,8.791057,328.76297,-19.81399,3.2048228,8.72612E-5,-0.20436645,0.32845783,44
2026-01-07 14:14:06.322,-1.06123,4.264672,8.620922,0.013315413,-0.1404776,-0.06058513,58.48125,54.581253,-63.187504,-1.4135879,4.0635066,8.812496,327.75842,-19.81399,3.2048228,0.35235798,0.2011652,-0.1915741,44
2026-01-07 14:14:06.471,-2.4510639,3.9097314,8.81964,-0.16031757,-0.01904104,-0.0627156,56.550003,54.787502,-62.79375,-1.3815142,3.9925306,8.849944,334.811,-19.81399,3.2048228,-1.0695497,-0.082799196,-0.030303955,44
2026-01-07 14:14:06.571,-2.0320787,3.514688,10.005967,-0.17842653,-0.00838871,0.13541774,55.8375,55.95,-62.68125,-1.42381,3.8046017,8.925702,331.09586,-19.81399,3.2048228,-0.60826874,-0.28991365,1.080265,44
2026-01-07 14:14:06.671,-1.5466543,3.4368765,8.959702,0.19760072,0.14500484,0.35592097,56.100002,55.425003,-62.86875,-1.4436984,3.7936237,8.92718,329.9665,-19.81399,3.2048228,-0.10295594,-0.35674715,0.032521248,44
2026-01-07 14:14:06.771,-0.9115923,3.9372647,8.185776,0.09001219,0.08002563,0.3665733,57.693752,54.45,-63.393753,-1.4071496,3.9723992,8.854962,327.52014,-19.81399,3.2048228,0.49555725,-0.035134554,-0.6691866,44
2026-01-07 14:14:06.871,0.005985504,4.176685,8.298303,-0.10918639,-0.006258244,0.13754821,58.518753,53.775,-63.825,-1.225492,4.0188327,8.8610115,322.63965,-19.81399,3.2048228,1.2314775,0.15785217,-0.56270885,44
2026-01-07 14:14:06.974,-0.6913257,3.6882677,9.272144,-0.10386022,-0.069106996,-0.007323477,58.18125,53.643753,-62.7,-1.1761311,3.8763313,8.930911,324.65286,-19.81399,3.2048228,0.4848054,-0.18806362,0.34123325,44
2026-01-07 14:14:07.073,-0.5710171,3.5901055,10.512939,0.4107805,-1.3592373,-0.3259613,56.718754,54.843754,-63.16875,-0.76891726,3.8979013,8.965797,324.00845,-19.81399,3.2048228,0.19790018,-0.30779576,1.547142,44
